Time,RS_AccelX,RS_AccelY,RS_AccelZ,RS_GyroX,RS_GyroY,RS_GyroZ,RA_AccelX,RA_AccelY,RA_AccelZ,RA_GyroX,RA_GyroY,RA_GyroZ,RT_AccelX,RT_AccelY,RT_AccelZ,RT_GyroX,RT_GyroY,RT_GyroZ,LT_AccelX,LT_AccelY,LT_AccelZ,LT_GyroX,LT_GyroY,LT_GyroZ,LA_AccelX,LA_AccelY,LA_AccelZ,LA_GyroX,LA_GyroY,LA_GyroZ,LS_AccelX,LS_AccelY,LS_AccelZ,LS_GyroX,LS_GyroY,LS_GyroZ,Left_Force,Right_Force,LS_GyroX_filtered,LS_GyroY_filtered,LS_GyroZ_filtered,LT_GyroX_filtered,LT_GyroY_filtered,LT_GyroZ_filtered,LA_GyroX_filtered,LA_GyroY_filtered,LA_GyroZ_filtered,RS_GyroX_filtered,RS_GyroY_filtered,RS_GyroZ_filtered,RT_GyroX_filtered,RT_GyroY_filtered,RT_GyroZ_filtered,RA_GyroX_filtered,RA_GyroY_filtered,RA_GyroZ_filtered,Left_Knee_Angle,Gait_Phase
40083,-0.02,0.14,0.98,0.2,0.06,0.25,0.02,0.14,0.92,-0.21,0.0,0.35,0.03,0.11,1.0,-0.02,-0.27,0.08,0.02,0.02,0.93,1.49,0.72,0.31,0.02,0.11,0.94,0.1,0.36,0.42,0.03,0.13,0.93,0.86,-0.28,0.4,1955.142000038734,948.8498519535992,0.07410707740099604,0.02317154259329419,0.07847932102668671,0.36471936208534483,0.14387297966060014,-0.038198153972615626,0.03616334982625839,0.07822255303325262,0.17349210069433407,0.10067976268434917,-0.07556866501701166,0.1221306731067496,0.24992844145468862,-0.01709587992553023,0.10626953723984281,-0.004974017659045278,-0.0811781670119509,0.14797277217912203,0.04981238986666467,Heel Strike
40088,-0.03,0.15,0.98,0.18,-0.09,0.37,0.03,0.14,0.92,-0.31,-0.24,0.49,0.03,0.11,1.0,0.04,-0.13,-0.07,0.02,0.02,0.94,1.7,1.11,0.6,0.01,0.11,0.95,0.21,0.3,0.44,0.03,0.12,0.91,0.51,-0.37,0.24,2382.776677838807,1277.3231141336323,-0.0442721436132917,0.07729310214700513,0.02897268093826241,0.4093842262083111,0.22396722198523447,0.018625520220879172,-0.024423649034252946,0.06368731311441762,0.11736669268195409,0.05944225578718928,-0.14792255942702706,0.11671904520711658,0.3088675717456263,0.013323488111026207,0.06275317973510575,0.020569825788524974,-0.08991888638126642,0.17055652112733488,0.050626194269689825,Heel Strike
40092,-0.02,0.15,0.98,-0.03,-0.25,0.27,0.02,0.14,0.92,-0.19,0.19,0.31,0.03,0.11,1.0,-0.15,-0.19,-0.11,0.02,0.03,0.93,1.93,1.21,0.62,0.02,0.11,0.95,-0.02,0.39,0.41,0.03,0.12,0.92,0.35,-0.12,0.16,2262.429011283697,1184.98360239538,-0.1567326368161325,0.1295920134953296,-0.018126175857695437,0.44551457509006576,0.29516771697956123,0.07201483801802477,-0.08273924838309003,0.05007944505740434,0.06253308503227803,0.024021433223650336,-0.21422178339640616,0.11086424081938642,0.36994138145649164,0.042324153722128104,0.023244941037000633,0.04698103466758103,-0.09898053103460104,0.19100866659436494,0.05130978322515553,Stance
40097,-0.02,0.14,0.99,-0.16,-0.17,0.34,0.02,0.14,0.92,-0.25,-0.1,0.69,0.03,0.12,1.01,0.14,-0.25,-0.02,0.03,0.03,0.94,1.99,1.3,0.47,0.01,0.12,0.95,-0.14,0.34,0.07,0.03,0.12,0.92,0.4,-0.05,0.21,2332.0795342271745,1237.4254445552808,-0.259251110730379,0.17818607902109376,-0.06113486549625461,0.46612310873207896,0.351011736981542,0.1199923432420964,-0.1367141161080661,0.038227528296215625,0.010110251761361877,-0.0004905540912376779,-0.2703773030385976,0.10491526960564922,0.4341038559348861,0.06904177121270472,-0.009299885593869399,0.07423961755535993,-0.10979958107904708,0.20877065271284406,0.05186025031555326,Stance
40101,-0.02,0.15,0.97,-0.21,-0.53,0.18,0.02,0.14,0.92,-0.15,0.29,0.41,0.03,0.11,1.0,0.11,-0.23,-0.37,0.02,0.03,0.93,1.71,1.08,0.45,0.01,0.12,0.95,-0.23,0.19,0.26,0.03,0.12,0.93,0.44,-0.16,0.18,2283.3893030718505,1200.036595534753,-0.34943383472055944,0.22100153097924763,-0.09935320641259396,0.46708979923006827,0.38810393875522037,0.16183844718756396,-0.18384315678094904,0.029147730096067376,-0.03847571210978365,-0.01034811829689777,-0.31333177777654886,0.0998699203796718,0.5011316811726246,0.09267274897301322,-0.03268080661087191,0.10155886351854428,-0.12352728053502994,0.22386154736376396,0.05222336979825721,Stance
40105,-0.03,0.15,0.98,-0.15,-0.14,0.09,0.02,0.14,0.91,0.0,-0.12,0.24,0.03,0.11,1.01,0.16,-0.02,-0.08,0.01,0.02,0.94,1.69,1.16,0.63,0.01,0.12,0.96,-0.29,0.29,0.12,0.03,0.12,0.92,0.35,-0.05,0.24,2321.5833909261255,1228.9793319436085,-0.4258543945695952,0.2559115943449917,-0.1327675037535241,0.44721757500071213,0.40590331533637264,0.1973281526460465,-0.22186605796170486,0.023847888600777772,-0.08190181216873468,-0.004043304934549502,-0.3413584914228334,0.09706056632610068,0.569571635121678,0.11209688489699544,-0.045681725741456694,0.1274640284614225,-0.1403542764454557,0.23695474234520966,0.05244785617158452,Stance
40109,-0.02,0.15,0.98,0.06,-0.37,0.12,0.03,0.14,0.92,-0.02,-0.17,0.4,0.03,0.11,1.01,0.31,-0.16,-0.06,0.02,0.03,0.94,1.95,1.21,0.67,0.02,0.12,0.95,-0.16,0.4,0.17,0.03,0.13,0.91,0.4,0.06,0.13,2291.5937460708387,1206.55806243178,-0.48713966585957863,0.28056869485890207,-0.16160462997947864,0.40760305083715653,0.406043010800931,0.2263351683823434,-0.2491444430625788,0.023103740842235876,-0.1189185007794924,0.01742158856260518,-0.3540524924668007,0.097502135162886,0.6367722095871892,0.12596660521918115,-0.048211731955980996,0.150182029097836,-0.15942086255431154,0.24867951476206218,0.05251801657458119,Stance
40113,-0.03,0.15,0.97,0.1,-0.4,0.11,0.02,0.14,0.92,0.08,0.06,0.48,0.03,0.11,1.01,0.46,0.03,-0.27,0.02,0.02,0.92,1.66,1.02,0.56,0.01,0.11,0.96,-0.06,0.23,0.06,0.03,0.13,0.92,0.28,0.14,0.05,2316.109548940834,1225.611248807316,-0.5313323614476863,0.29256258336898466,-0.18612190844422716,0.3515827224034912,0.39195282463237363,0.2490277831267119,-0.2644105865400352,0.027651083229376146,-0.14810114499371627,0.05104842313095076,-0.35202507423884405,0.10128832025607512,0.6989573262826038,0.13308496200554307,-0.04097869298924911,0.16817264457798795,-0.1793805391654166,0.2588296810355267,0.05241545785854109,Stance
40117,-0.02,0.15,0.98,0.2,-0.24,0.29,0.03,0.14,0.92,0.18,-0.21,0.49,0.03,0.11,1.01,0.79,-0.05,-0.05,0.02,0.03,0.92,1.11,0.76,0.6,0.02,0.12,0.96,-0.35,0.25,-0.01,0.04,0.13,0.93,0.07,0.21,0.05,2292.401675743207,1209.810778368514,-0.5556981125402695,0.29004040401216924,-0.20678250926459935,0.28481621307502275,0.36844913636808935,0.2659021133682674,-0.2661318435843391,0.038351155580859976,-0.16782408815286273,0.09271821795279207,-0.3368543441251054,0.10746279380353385,0.751808681914722,0.13270671168816836,-0.025257926757056428,0.18057741544873535,-0.19877998779242992,0.2664517770903807,0.05211932380375854,Stance
40121,-0.03,0.15,0.98,0.38,-0.29,0.34,0.02,0.14,0.92,-0.09,-0.34,0.72,0.03,0.11,1.01,0.63,-0.08,-0.04,0.02,0.03,0.94,1.06,0.82,0.7,0.02,0.12,0.95,-0.45,0.28,-0.15,0.04,0.13,0.91,-0.09,0.05,0.11,2311.6233590145844,1220.824675267003,-0.5572744629888459,0.2723067250586329,-0.2244921509732089,0.21397581484900977,0.34069379832308544,0.2774999306770374,-0.2524752441570734,0.055912232100626756,-0.17659126135495096,0.13795568005934256,-0.31116649011617187,0.11445317190836643,0.7915477662174365,0.12474155959958755,-0.00295123803324017,0.1875365906457422,-0.21614131927180238,0.2705125268569992,0.05160638779468883,Stance
40125,-0.03,0.15,0.97,0.37,-0.2,0.21,0.03,0.14,0.93,-0.05,-0.1,0.38,0.03,0.11,1.01,0.8,-0.05,-0.02,0.02,0.03,0.93,1.05,0.63,0.74,0.02,0.11,0.95,-0.26,0.24,-0.18,0.03,0.12,0.93,0.11,0.02,0.09,2294.6027316170826,1213.8708870423673,-0.5339475506112198,0.23995377698256637,-0.24050134347258728,0.1446334376153185,0.3130070408598446,0.28439865639294465,-0.22217714282982495,0.08055006750190473,-0.17370030658177388,0.18258941871210277,-0.2784541208649226,0.1207355683692442,0.8158260454365094,0.10978429104690413,0.023623945784526895,0.19001640830172006,-0.2304211431602535,0.27052923059837314,0.050850556868430596,Stance
40129,-0.02,0.15,0.98,0.46,-0.16,0.26,0.01,0.14,0.92,0.09,-0.21,0.51,0.03,0.11,1.01,0.79,-0.11,-0.09,0.02,0.02,0.93,1.18,0.85,0.7,0.02,0.11,0.96,-0.36,0.38,-0.11,0.03,0.12,0.93,-0.11,0.08,0.08,2310.768213582596,1218.1397118685195,-0.48525701893874934,0.1946099965933639,-0.2560840408959958,0.0802694716138376,0.28823680549688246,0.2875624572397957,-0.17530060880530013,0.11185849253569505,-0.1599374784100722,0.2233055318927913,-0.24286401420749332,0.1251133219867758,0.8240606507054176,0.08902914662344706,0.051994435570071065,0.18920905776372232,-0.24133074962570883,0.2666986285653951,0.04982218127806976,Stance
40133,-0.03,0.15,0.98,0.37,0.22,0.35,0.02,0.14,0.92,-0.08,-0.15,0.53,0.03,0.1,1.01,0.56,-0.14,0.22,0.02,0.03,0.93,1.22,0.75,0.52,0.02,0.11,0.95,-0.43,0.24,0.04,0.03,0.12,0.92,0.11,0.09,0.18,2296.4094383696206,1218.8394675295576,-0.4127954469375341,0.1389310766001182,-0.2722395849873316,0.022817863329065723,0.2677825639884664,0.2884682843058194,-0.11353728115740112,0.14876914909334027,-0.13781635975115467,0.25786332921346483,-0.20884473147367275,0.1265923838024799,0.8174513379761302,0.06422640019445962,0.07954141327589431,0.18627215799883254,-0.24902317747299907,0.2595347374379538,0.048489571860815206,Stance
40137,-0.03,0.15,0.98,0.57,-0.14,0.25,0.02,0.14,0.92,0.07,-0.11,0.48,0.03,0.11,1.01,0.63,-0.23,0.22,0.02,0.03,0.93,1.09,0.77,0.67,0.01,0.1,0.96,-0.15,0.44,0.15,0.02,0.12,0.93,0.31,-0.21,0.01,2309.603561424825,1198.3924297428923,-0.3204061663750054,0.07691780306367568,-0.2894191982100101,-0.026221121099611427,0.25198700061976015,0.28870722941298455,-0.04061754035659783,0.18946629776411675,-0.11113116738836472,0.28502431793276584,-0.18040032101558956,0.12440059112603234,0.7986278990475929,0.03757500758899292,0.1038076524273768,0.18244737872869196,-0.2536987849311586,0.24970099528535616,0.04682510911993135,Stance
40141,-0.03,0.15,0.99,0.39,0.08,0.44,0.03,0.15,0.91,-0.09,-0.23,0.57,0.02,0.11,1.0,0.54,-0.37,-0.04,0.01,0.03,0.93,0.73,0.87,0.64,0.01,0.11,0.96,0.11,0.35,0.18,0.03,0.11,0.93,0.4,-0.4,0.02,2297.3131901421434,1152.3171340594922,-0.21389831268994028,0.013739954285020006,-0.30742557092612066,-0.06527008988864831,0.24050845834598844,0.28955774712931476,0.037573713573394805,0.2312741653203339,-0.08411604975197767,0.3044814907265865,-0.1605820188731261,0.1182299116339974,0.7710183484668999,0.011395898178564453,0.12308260893639929,0.17908686753485228,-0.25540019187195634,0.2381958993600844,0.04481328538575998,Stance
40145,-0.02,0.15,0.98,0.4,0.2,0.24,0.02,0.14,0.92,-0.14,-0.39,0.18,0.03,0.12,1.01,0.5,-0.27,0.17,0.02,0.03,0.93,0.95,0.94,0.69,0.02,0.11,0.96,0.24,0.78,0.14,0.03,0.12,0.93,0.56,-0.5,-0.04,2308.6445499717083,1232.836275884663,-0.10041796154120922,-0.04528755619444762,-0.32563244252638823,-0.09324243612138215,0.23273800506994896,0.2920074169109412,0.11386155431058669,0.2707998043056055,-0.06078016640487162,0.3167262656479982,-0.15150094976211362,0.10849438443628638,0.7384302959069542,-0.012359105967152551,0.13638784622974762,0.17746794442184488,-0.2541339656723994,0.22636883446529676,0.04245496746235341,Stance
40149,-0.02,0.15,0.98,0.5,0.11,0.1,0.02,0.14,0.92,0.05,-0.01,0.44,0.03,0.11,1.0,0.43,-0.32,0.25,0.01,0.03,0.93,1.08,0.79,0.69,0.0,0.11,0.95,0.31,0.69,0.15,0.02,0.11,0.93,0.62,-0.44,-0.15,2297.0692847002956,1203.7267207835812,0.011969910746621952,-0.0957867329476239,-0.34333638988310333,-0.11015801815360347,0.22836308255567928,0.2970027376649044,0.18105805535094346,0.3046343831544131,-0.04474404821920777,0.3227059023355711,-0.1541015462976398,0.096322557572219,0.7048382724578497,-0.03241257924176837,0.14308761425430203,0.17847143578723657,-0.250330587619731,0.2154352293736793,0.03976674997382078,Stance
40153,-0.02,0.15,0.98,0.53,-0.02,0.18,0.02,0.14,0.92,0.02,0.03,0.44,0.03,0.11,1.01,0.27,-0.38,0.09,0.02,0.03,0.92,0.96,0.72,0.8,0.01,0.11,0.96,0.56,0.65,0.44,0.03,0.12,0.92,1.1,-0.5,-0.17,2305.682173427232,1225.9134847280309,0.1146213336382227,-0.13468722323197113,-0.3601573104688861,-0.11674532882493682,0.22755275926897175,0.3056830709000514,0.23290005867536576,0.33024731649619565,-0.039229563467292734,0.3236769535608271,-0.16776991788993245,0.08300986935253954,0.674063054776322,-0.04812929235493526,0.143004258925886,0.18254634995018795,-0.24475358041819534,0.2059641501907988,0.03677780879086912,Stance
40157,-0.03,0.14,0.99,0.37,0.07,0.35,0.02,0.15,0.92,-0.08,-0.33,0.52,0.03,0.11,1.01,0.26,-0.33,0.18,0.02,0.03,0.93,0.89,0.75,0.58,0.01,0.12,0.95,0.53,0.76,0.21,0.03,0.13,0.92,1.27,-0.6,-0.04,2295.630228265295,1208.2110794775156,0.19925829397564218,-0.1601039900276671,-0.37637317426492467,-0.11377405012995631,0.23051524297175466,0.319556587543713,0.2647844726264774,0.3463169211801903,-0.04663884013646801,0.3214031808580092,-0.19047399706619147,0.06953239883960698,0.6492417184503094,-0.05946769600914315,0.13667951997656033,0.1900402541771442,-0.23770298811339025,0.19808963910531746,0.03352480175687084,Stance
40161,-0.02,0.14,0.98,0.18,-0.25,0.13,0.01,0.14,0.92,-0.01,-0.1,0.34,0.03,0.11,1.01,0.2,-0.29,0.13,0.02,0.03,0.93,0.93,0.59,0.45,0.02,0.12,0.94,0.48,0.53,0.31,0.03,0.13,0.92,1.28,-0.48,-0.15,2304.0031624677113,1222.8544912767852,0.25950662150460013,-0.17128171367702433,-0.3928641612034665,-0.10210138430331411,0.23688098117692638,0.34020337770235254,0.27437928757267155,0.35250881984757454,-0.06799371318093765,0.31798622307916347,-0.21924597865453674,0.05679060094430551,0.632235020236219,-0.06696574654355508,0.12530423090979909,0.20127285802345465,-0.2288239197810041,0.19209940661893676,0.030045726937461104,Stance
40165,-0.02,0.14,0.99,0.56,-0.21,0.22,0.03,0.14,0.92,-0.08,-0.22,0.38,0.03,0.1,1.0,0.3,-0.36,0.02,0.02,0.03,0.91,0.95,0.84,0.76,0.01,0.11,0.95,0.51,0.73,0.11,0.03,0.13,0.92,1.21,-0.44,0.01,2296.2596638721316,1209.9085013030287,0.2919766469135681,-0.16851825748831784,-0.4107328470729653,-0.08304684862205211,0.2452708272598795,0.3684291527708808,0.26178250540759845,0.3491252864018936,-0.10283695110092769,0.31517376558402205,-0.2507860927289457,0.04599968512683246,0.6232768380722162,-0.07156660573971073,0.11057545822417392,0.21624831286444648,-0.21769419126179532,0.18854756073222045,0.026375972731295588,Stance
40169,-0.03,0.14,0.99,0.38,-0.07,0.06,0.03,0.14,0.92,-0.08,-0.24,0.36,0.02,0.11,1.01,0.24,-0.18,-0.15,0.02,0.03,0.93,1.01,0.98,0.55,0.02,0.12,0.95,0.38,0.6,0.02,0.04,0.13,0.92,1.21,-0.53,-0.1,2304.1547952822257,1221.190686695972,0.2962975730887901,-0.1528550696897215,-0.4308827836373502,-0.05849386436141823,0.25338218786290023,0.40371319372971715,0.2293271152698994,0.3368507745379254,-0.149572899815332,0.314127483273969,-0.28205731353510266,0.03858671947297428,0.6209870657559858,-0.0743677233508019,0.09436290381372131,0.23435034958852513,-0.20424205091968348,0.18791935531687193,0.022547741721622827,Stance
40173,-0.03,0.15,0.98,0.25,-0.32,-0.01,0.03,0.14,0.92,0.18,-0.09,0.34,0.03,0.11,1.01,0.46,-0.28,0.02,0.02,0.02,0.93,1.05,1.12,0.86,0.01,0.12,0.95,0.15,0.62,0.05,0.03,0.13,0.92,0.91,-0.37,-0.17,2295.885684379464,1210.3435863628922,0.2745042513179959,-0.12584752841530142,-0.4537288783967306,-0.030742086052545664,0.25891475322240437,0.4442848187307884,0.18120820007265648,0.31671764643365735,-0.20595485191267138,0.31576640655724136,-0.3103792345306251,0.03573997290587076,0.6226574991760558,-0.0763165187115795,0.07804968234939715,0.25419783686047237,-0.1889143799034283,0.19034718303237308,0.018591113055327617,Stance
40177,-0.03,0.14,0.98,0.24,-0.27,0.21,0.02,0.14,0.92,0.02,-0.09,0.38,0.03,0.11,1.0,0.47,-0.25,0.13,0.02,0.02,0.93,1.01,0.97,0.93,0.02,0.12,0.96,-0.05,0.56,-0.1,0.03,0.12,0.92,0.9,-0.32,-0.08,2304.4501405943056,1219.8166008251235,0.2300850462324354,-0.08945621691716778,-0.479176585357775,-0.0023438207464716193,0.26081347425401874,0.48749362325167117,0.12265272796508186,0.29010929654155193,-0.2693994327196267,0.3205968861008907,-0.3332901763095088,0.03792542729320055,0.6248168740005267,-0.07788717182468491,0.062242625527037486,0.2738815116998843,-0.17266442098350848,0.1955001372789907,0.014535078445197365,Stance
40181,-0.02,0.15,0.99,0.4,-0.18,0.15,0.03,0.14,0.91,0.15,-0.03,0.52,0.03,0.11,1.0,0.47,-0.39,-0.08,0.01,0.03,0.93,1.3,0.97,0.93,0.02,0.12,0.95,0.11,0.53,-0.24,0.04,0.13,0.93,0.84,-0.42,-0.3,2294.1593771034914,1213.0032124067789,0.16697697204910497,-0.04585535707818472,-0.506727480723402,0.0240474670268003,0.2598771838094857,0.5304139806810686,0.05881410550773105,0.25866448796307623,-0.33711129578491256,0.3280647865367409,-0.34865170655528493,0.044820026804823054,0.6239799732115391,-0.07904506305220786,0.047229566611267065,0.2913807653251436,-0.15662253357651612,0.20264636639262815,0.010407770240913675,Stance
40185,-0.03,0.15,0.99,0.29,-0.48,0.14,0.02,0.14,0.92,0.15,-0.1,0.33,0.03,0.11,1.0,0.53,-0.37,-0.06,0.01,0.03,0.93,1.11,0.69,1.0,0.02,0.12,0.94,-0.17,0.56,-0.17,0.04,0.13,0.92,0.85,-0.3,-0.19,2302.923204391943,1224.3431964808872,0.0890880799123061,0.0025584945692347597,-0.5355984435382093,0.0460238624404413,0.2584322586562646,0.5703678295079626,-0.005837980559180856,0.22422668561591338,-0.40628876428468597,0.336365123759329,-0.3547368146327062,0.05568875574799739,0.6172157619416394,-0.079601180479273,0.033363925855354554,0.3047436629465215,-0.14178164199239268,0.21092268044946275,0.006236002236347356,Stance
40189,-0.02,0.14,0.98,0.44,-0.5,0.2,0.02,0.14,0.92,0.11,0.12,0.57,0.03,0.11,1.01,0.69,-0.31,-0.02,0.02,0.03,0.92,1.14,0.67,0.99,0.02,0.12,0.94,-0.01,0.28,-0.27,0.04,0.13,0.92,0.85,-0.18,-0.27,2315.759824961147,1210.901693520977,0.0005299952727733544,0.05295425433315606,-0.5648525686376833,0.06175089487309383,0.25932277215417077,0.6050340869629721,-0.06753028445985038,0.18880328434447005,-0.4742048217492057,0.34269052342338036,-0.35053663862038775,0.06961573847549642,0.6025667606225598,-0.0796343243970675,0.020887517415366295,0.31213766907936374,-0.12886996453281047,0.21955328298505083,0.0020446001820458443,Stance
40193,-0.03,0.14,0.99,0.64,-0.24,0.13,0.02,0.14,0.92,0.28,-0.04,0.43,0.03,0.11,1.0,0.55,-0.3,0.01,0.02,0.03,0.94,1.24,0.54,1.08,0.01,0.12,0.95,-0.23,0.46,-0.37,0.03,0.13,0.91,0.7,-0.03,-0.35,2318.9127524843716,1216.6941963364998,-0.0938006252808149,0.10221036427409619,-0.5934295441582446,0.06990299548597691,0.26462645698553566,0.6323849103659923,-0.12305497783193654,0.15431514156160228,-0.5379962799273981,0.3436461217624759,-0.33645880278646906,0.0854572377070129,0.5796551971773057,-0.07959097255078067,0.009811516708360458,0.31194768766934255,-0.11815640441682548,0.22794345645927092,-0.002144387211476452,Stance
40197,-0.02,0.15,0.98,0.54,-0.35,0.24,0.02,0.15,0.92,0.51,-0.07,0.49,0.03,0.11,1.01,0.43,-0.31,-0.06,0.02,0.03,0.93,1.01,0.96,1.26,0.02,0.12,0.95,-0.05,0.24,-0.57,0.03,0.13,0.92,0.4,-0.18,-0.2,2287.870941455164,1208.1552416633642,-0.1879020205325245,0.14738625293247593,-0.6201099245057353,0.06945799099773566,0.2747912584038822,0.6508120851809779,-0.1695901091331438,0.12226212072142692,-0.5946361395362529,0.3360331597044228,-0.3145498423097318,0.10176498251309968,0.5501404052867043,-0.08008037725847553,0.00014933313854560866,0.3032034986699942,-0.10930803278780168,0.23579389263614461,-0.006312889612302662,Stance
40201,-0.03,0.15,0.98,0.45,-0.27,0.32,0.02,0.14,0.91,0.11,0.0,0.27,0.03,0.11,1.01,0.27,-0.35,-0.12,0.02,0.03,0.93,1.16,0.79,1.0,0.02,0.11,0.95,-0.27,0.42,-0.66,0.04,0.12,0.92,0.24,0.07,-0.43,2302.045255349102,1217.701410679871,-0.2751311874737531,0.1859527937784969,-0.6434178593511134,0.05949078343959412,0.28881109744701616,0.6594947539166616,-0.20442926080325688,0.09362031318339807,-0.6414262516784035,0.31761012932592014,-0.2881044272189523,0.11684265425858223,0.5174315203590006,-0.08172619037901198,-0.007952699435739057,0.2864450263840891,-0.10162469953244921,0.24298323043963968,-0.0104485072986982,Stance
40205,-0.03,0.15,0.99,0.7,0.1,0.18,0.02,0.14,0.92,0.02,0.08,0.53,0.03,0.11,1.01,0.05,0.0,-0.09,0.02,0.03,0.91,1.11,0.87,1.11,0.02,0.12,0.95,-0.41,0.31,-0.52,0.03,0.13,0.92,-0.07,0.15,-0.54,2292.4263487666403,1210.5505490849946,-0.3493650939688492,0.21590452510583186,-0.6616762848308839,0.03895238256367179,0.30499522729372025,0.6585197042055311,-0.22492687316228743,0.06899409681277187,-0.6766231912171318,0.2873315595275851,-0.2612024738574304,0.12898126347695993,0.48570311135572874,-0.08501892035900262,-0.01440772005102535,0.26400575338906784,-0.09428189469794243,0.24912178081155167,-0.014545620276844952,Stance
40209,-0.03,0.14,0.98,0.6,-0.26,0.37,0.02,0.15,0.92,-0.05,-0.26,0.63,0.02,0.11,1.01,0.25,-0.41,-0.19,0.02,0.03,0.92,1.12,0.84,1.0,0.01,0.12,0.95,-0.5,0.18,-0.69,0.03,0.12,0.92,0.1,0.08,-0.37,2299.8542330304995,1217.7928256068535,-0.40624732842649053,0.23618729644754738,-0.6734744185988174,0.006727712099947053,0.32135007328307863,0.6485166028591515,-0.22907036826728042,0.048786042774796916,-0.6996113173240496,0.24563921991150484,-0.2380552759683956,0.1366188778484317,0.4587629789959531,-0.08984924139676026,-0.01947164033411647,0.23906595054931803,-0.0863361265621455,0.25342766466146616,-0.01860460626197321,Stance
40213,-0.02,0.15,0.98,0.27,0.06,0.4,0.03,0.14,0.92,-0.05,0.02,0.54,0.03,0.12,1.0,0.11,-0.21,0.0,0.02,0.03,0.92,1.25,0.92,1.1,0.02,0.11,0.96,-0.48,0.25,-0.6,0.03,0.12,0.92,0.05,0.02,-0.54,2288.938567817346,1209.049631197223,-0.44379569987308337,0.24701285571689954,-0.6780526789255129,-0.03797981317357259,0.3355383368446306,0.6303122528930604,-0.21645125900092685,0.03306328743332754,-0.7107214503004361,0.19495944271293889,-0.22242476070177647,0.1384662493191035,0.4394401712341315,-0.09517236977854593,-0.023884105297766828,0.21447581338910293,-0.07702306711105021,0.2553261106326406,-0.02262928697119019,Stance
40217,-0.03,0.15,0.99,0.0,0.22,0.41,0.02,0.14,0.92,-0.24,-0.02,0.37,0.03,0.11,1.01,-0.07,-0.4,-0.02,0.02,0.02,0.92,1.15,1.17,1.03,0.02,0.11,0.95,-0.3,0.36,-0.65,0.03,0.12,0.92,0.05,0.18,-0.5,2297.474812762392,1218.3561327623113,-0.46217258880767803,0.24968577703191192,-0.6753531524000989,-0.09502827812573969,0.3450645221458022,0.6049200131824136,-0.1888770707695884,0.021355969978295176,-0.7111236309119721,0.13930534111922283,-0.21730281780358943,0.13393415999993477,0.42945797983989126,-0.09927796552387512,-0.02868145249035865,0.19212111950617294,-0.06619923537576823,0.2549654926137813,-0.026624066791368868,Stance
40221,-0.03,0.15,0.98,0.3,0.11,0.31,0.02,0.14,0.92,0.01,0.02,0.49,0.03,0.11,1.01,-0.09,-0.44,-0.08,0.01,0.02,0.93,0.9,1.02,0.95,0.02,0.11,0.95,-0.17,0.25,-0.46,0.03,0.11,0.92,0.12,-0.11,-0.43,2290.6784027499075,1209.3200054817823,-0.46318628784048926,0.2463439612309383,-0.6660951801428764,-0.16279137721673737,0.3479547389371359,0.5736485802811975,-0.15017859390411115,0.012897477478627394,-0.7026905508855205,0.08293635476433053,-0.22417927985675892,0.12358401833200754,0.4289716850491415,-0.10030995598451747,-0.03474434676041838,0.17259838451546503,-0.05425977176091617,0.25291748901376887,-0.030592217446976468,Stance
40225,-0.03,0.15,0.99,0.05,-0.11,0.13,0.02,0.14,0.93,0.02,0.02,0.54,0.03,0.12,1.01,0.08,-0.4,-0.16,0.01,0.03,0.93,0.74,0.98,1.01,0.01,0.11,0.95,-0.08,0.37,-0.65,0.03,0.11,0.92,0.18,0.02,-0.39,2294.4784671677808,1218.3570678513804,-0.44987009943758294,0.23967006621964768,-0.6517504868869489,-0.2383448680229415,0.3433927569234892,0.5380929874261757,-0.1053964950156334,0.007058459000900223,-0.6876696348325766,0.029582273134416297,-0.24231235657774103,0.10903936314500443,0.4358000562459759,-0.09678674056766111,-0.04260020935590137,0.15530166555514646,-0.041804584899507016,0.2497028500580457,-0.034535640532372174,Stance
40229,-0.03,0.15,0.99,-0.06,-0.06,0.25,0.02,0.14,0.92,0.02,0.15,0.51,0.03,0.11,1.0,0.36,-0.38,-0.09,0.02,0.03,0.93,0.79,0.98,0.81,0.02,0.11,0.96,0.0,0.21,-0.56,0.03,0.11,0.93,0.24,-0.15,-0.34,2290.3945142472035,1209.7801932304512,-0.42600362432100686,0.2323902949100873,-0.6342220724167298,-0.3182624391777173,0.3317063692292904,0.5000387205889647,-0.05989770421509237,0.0035462025534150274,-0.668505049707203,-0.017461327898085008,-0.2689901428404056,0.09237193815240152,0.44540945310466085,-0.08799318993289906,-0.05266753123872834,0.13910324149855827,-0.02944677740228143,0.24588150023921637,-0.0384556174891278,Stance
40233,-0.02,0.15,0.98,-0.22,-0.3,0.17,0.02,0.14,0.92,0.12,0.12,0.31,0.03,0.11,1.01,0.49,-0.44,-0.02,0.02,0.03,0.93,0.78,0.95,0.92,0.02,0.11,0.95,0.18,0.29,-0.4,0.03,0.11,0.92,0.18,-0.2,-0.35,2293.023469394195,1215.632438133546,-0.3956801957571949,0.22671844805737262,-0.6154903854639858,-0.39902760735502174,0.3140205043218196,0.4613451409352904,-0.01868975023902445,0.0023621263316686843,-0.6478948356668379,-0.05554883261252878,-0.30038685743204635,0.07556540393975875,0.4521127805633799,-0.07408128532867903,-0.06541355358943052,0.12313401711489536,-0.017550743205886708,0.24226105717913957,-0.042353452594689346,Stance
40237,-0.03,0.15,0.98,-0.08,-0.21,0.09,0.02,0.14,0.92,-0.11,-0.06,0.53,0.03,0.11,1.01,0.27,-0.18,-0.24,0.02,0.03,0.93,0.53,0.73,0.76,0.01,0.12,0.96,0.24,0.29,-0.44,0.03,0.11,0.93,0.29,-0.04,-0.21,2289.314801464295,1204.6546385050597,-0.36315502980938447,0.22388411971974956,-0.5973666354495721,-0.4767796019968137,0.29195915806592365,0.423828568244405,0.014262155321745025,0.0036714775562130503,-0.6285866079105078,-0.08339452532509845,-0.33228841001742027,0.06035927415858461,0.4506424339598003,-0.05599928798611976,-0.08118133233257621,0.10723084735917636,-0.006027152581212023,0.2396510795779178,-0.0462297501319397,Stance
40241,-0.03,0.14,0.98,-0.1,-0.55,0.19,0.01,0.14,0.92,-0.12,-0.04,0.27,0.03,0.12,1.0,0.4,-0.23,-0.02,0.03,0.03,0.93,0.46,0.98,0.73,0.01,0.12,0.95,-0.02,0.18,-0.37,0.03,0.11,0.92,0.36,-0.05,-0.27,2295.1252471561215,1202.0555748830882,-0.33281417869475827,0.22403329108863454,-0.5812276439967556,-0.5471845729335514,0.2672794143121662,0.3891583492540261,0.03657985650082078,0.007724236403977035,-0.6128919985738285,-0.10139416700055202,-0.3606969864501395,0.048158320729770485,0.43692020423227174,-0.03516022025771113,-0.10007855840645404,0.09188747541713914,0.005320984756474634,0.23848317830005775,-0.05008204702624538,Stance
40245,-0.02,0.14,0.98,0.14,-0.36,0.09,0.02,0.14,0.93,-0.12,0.05,0.56,0.03,0.11,1.01,0.55,-0.11,-0.25,0.02,0.03,0.93,0.36,0.81,0.76,0.01,0.12,0.96,0.07,0.17,-0.26,0.04,0.12,0.92,0.53,-0.05,-0.29,2286.592984799807,1213.0975443346904,-0.30886315830339717,0.22659007348489102,-0.5678033908119255,-0.6058300871746967,0.24169976713177402,0.35870413547937147,0.04729965678920988,0.014662447718811667,-0.6022908377078423,-0.11118590346479418,-0.3824923707346142,0.03994008847100106,0.4081676078201823,-0.012829206521269029,-0.12201328675496406,0.07776128463687987,0.016115844278978223,0.23866809142454778,-0.053902026671956114,Stance
40249,-0.03,0.14,0.99,0.12,-0.11,0.09,0.01,0.14,0.92,-0.12,0.18,0.42,0.03,0.11,1.01,0.31,-0.24,-0.24,0.02,0.03,0.92,0.44,0.63,0.85,0.01,0.11,0.95,0.21,0.37,-0.46,0.03,0.12,0.92,0.5,-0.04,-0.27,2292.6724055882883,1212.6828039481484,-0.2946675281343066,0.23058577529736188,-0.5572371597609629,-0.6486185357685421,0.21696881741470303,0.333551032380009,0.046265032010939906,0.02421872312110902,-0.5971415387761635,-0.11469400074100485,-0.3957278117848103,0.03624747169174574,0.3632838616004507,0.010316081461746649,-0.1467495325483519,0.06526164821555039,0.025204911488133853,0.2396923879596966,-0.05767464289786043,Stance
40253,-0.02,0.15,0.98,-0.16,-0.56,0.18,0.02,0.14,0.93,-0.09,0.11,0.65,0.03,0.11,1.01,0.32,-0.27,-0.16,0.02,0.02,0.92,-0.04,0.63,0.56,0.02,0.11,0.95,0.27,0.16,-0.47,0.03,0.12,0.92,0.54,0.08,-0.25,2287.629980139746,1211.6528474528095,-0.2921089169096474,0.23480220905494084,-0.5492785701688587,-0.6719880479796132,0.19450894625564905,0.3147693852209928,0.03414765555601901,0.03570849241873582,-0.5967043686056195,-0.11330407322618088,-0.39915011792459093,0.03714964149203504,0.3032785797201986,0.034103924597558545,-0.17405884777843192,0.05452977972035739,0.031118315444791215,0.2409866562118368,-0.061380069411427506,Stance
40257,-0.03,0.14,0.99,-0.15,-0.48,0.11,0.01,0.14,0.92,-0.15,0.26,0.4,0.03,0.11,1.01,0.18,-0.3,-0.25,0.02,0.02,0.93,-0.15,0.58,0.65,0.02,0.12,0.95,0.06,0.37,-0.49,0.03,0.13,0.92,0.49,0.05,-0.33,2292.214068801159,1215.0234074416585,-0.3012591830559748,0.23804013388301945,-0.5433869682633217,-0.6737494164877708,0.1746757632576713,0.30337350019068055,0.013079337839850836,0.048205532800590874,-0.5996436801193177,-0.1080035977761925,-0.39194076687512036,0.04227296897492407,0.23118951006730665,0.05831725376703776,-0.20372422235803261,0.04558595421893146,0.032632952078076434,0.2423735335025877,-0.06499724647263111,Stance
40261,-0.02,0.15,0.99,-0.05,-0.34,0.21,0.03,0.14,0.93,-0.18,0.24,0.44,0.03,0.11,1.01,0.02,-0.06,-0.16,0.02,0.03,0.93,0.44,0.73,0.62,0.01,0.12,0.95,-0.18,0.35,-0.46,0.03,0.12,0.92,0.34,-0.02,-0.27,2288.5569209918485,1209.494572192055,-0.32041201742296604,0.23942940684917732,-0.5388478013259649,-0.6544197301412048,0.1563899927204916,0.29985182698339663,-0.01326593292942166,0.06065522351433182,-0.6045171996001486,-0.10025924096185204,-0.3743397037863466,0.0509576927133285,0.15172712244611167,0.08216129402412647,-0.23524765496029004,0.03837151457741432,0.029203792057794206,0.24414624934545637,-0.06850798176277842,Stance
40265,-0.03,0.14,0.97,0.2,-0.45,0.11,0.02,0.14,0.92,0.16,0.15,0.49,0.04,0.11,1.01,-0.11,-0.12,-0.36,0.02,0.03,0.93,0.34,0.84,0.69,0.02,0.12,0.95,-0.28,0.24,-0.41,0.03,0.13,0.92,0.16,-0.02,-0.31,2290.6668937846907,1212.6444797840843,-0.34656544128508954,0.23840772537264715,-0.5349319854256438,-0.6173322889655933,0.13748596266049087,0.3039022317887002,-0.04068369417469797,0.07202860983887341,-0.6098482777193954,-0.09233370760752839,-0.34810038479508526,0.06236092236915473,0.07081851564601972,0.10431473349684467,-0.2675794955318668,0.03281731535251637,0.02131653295441495,0.24672875981730588,-0.07190026293072183,Stance
40269,-0.02,0.15,0.98,0.2,-0.09,0.19,0.03,0.14,0.92,-0.15,0.1,0.51,0.03,0.11,1.0,-0.37,-0.13,-0.48,0.03,0.02,0.93,0.44,0.84,0.65,0.02,0.12,0.95,-0.15,0.44,-0.53,0.03,0.12,0.93,0.18,0.11,-0.37,2287.737047099763,1206.0804127636434,-0.37631963116907446,0.234515180048559,-0.5310291882149487,-0.5673346672990522,0.11562229107685658,0.31453857926258577,-0.06574619690379857,0.08137617850333509,-0.6139524773769742,-0.0864974885744266,-0.31625567009325856,0.075430342401415,-0.0050825051250728455,0.12334575564309737,-0.29921553501567794,0.029322475179945684,0.01052003731625898,0.25045708023284324,-0.07516934201020944,Stance
40273,-0.03,0.15,0.99,0.17,-0.12,0.24,0.02,0.14,0.92,-0.27,-0.04,0.46,0.03,0.12,1.01,-0.59,0.08,-0.33,0.01,0.02,0.92,0.44,0.85,0.79,0.02,0.11,0.95,-0.23,0.4,-0.56,0.03,0.13,0.92,0.21,0.11,-0.12,2292.569127017318,1212.5225757280073,-0.4066183128624944,0.2275270022139453,-0.5267176703729279,-0.5098277031537882,0.08924999793473078,0.3302755481114183,-0.08636540137619139,0.08786689453524117,-0.6149367215734899,-0.0839154001946238,-0.2824862583040564,0.08885785202845183,-0.07000679423757789,0.13795700050668563,-0.3286656272577848,0.029113454745649383,-0.0010111392379566718,0.2556987625581177,-0.07831732434372637,Stance
40277,-0.02,0.15,0.99,-0.07,-0.02,0.24,0.03,0.14,0.92,-0.28,-0.07,0.34,0.03,0.1,1.01,-0.48,-0.13,-0.33,0.02,0.02,0.92,0.89,0.71,0.75,0.02,0.11,0.95,-0.22,0.47,-0.61,0.04,0.12,0.93,0.3,-0.2,-0.35,2285.427796347585,1204.186043083228,-0.4347730461409771,0.21773350953162476,-0.5215940970510239,-0.45044107432227415,0.05814732832451614,0.349350362251073,-0.10164343952845876,0.09111114797086346,-0.6110577567153859,-0.08423463390397853,-0.2502592791317384,0.10119376409327238,-0.11964870319105061,0.14715438635500283,-0.3546588617555863,0.03362234329095737,-0.01117740149185354,0.26283486518889704,-0.08135249975132144,Stance
40281,-0.03,0.14,0.99,-0.05,-0.05,0.31,0.02,0.14,0.92,-0.21,-0.09,0.42,0.03,0.11,1.01,-0.4,0.07,-0.44,0.02,0.02,0.93,0.77,0.8,0.67,0.01,0.11,0.95,-0.13,0.21,-0.63,0.03,0.12,0.92,0.07,0.03,-0.42,2291.5585870604605,1212.7288466936143,-0.45800856700204,0.20568889852953096,-0.5151577104616935,-0.3943179652460517,0.023496448657012645,0.3698820674134107,-0.11161088919139418,0.09139701159298527,-0.6012181978415043,-0.08616024802239651,-0.2221885897105218,0.11109012780825049,-0.1519929836039344,0.15042746427522,-0.37577851427081876,0.04347258926651401,-0.01864701480797742,0.27184296086803883,-0.08428858182776944,Stance
40285,-0.02,0.15,0.98,0.05,-0.13,0.37,0.02,0.14,0.91,-0.13,0.2,0.6,0.03,0.11,1.01,-0.5,0.0,-0.63,0.01,0.03,0.93,0.67,0.64,0.85,0.01,0.11,0.95,-0.08,0.26,-0.47,0.03,0.12,0.93,0.04,-0.04,-0.21,2285.622727443072,1206.690111664452,-0.4733320663759019,0.19174167352494229,-0.5071685746756647,-0.34527022362943494,-0.012187981052113366,0.3897651772850736,-0.11688207883112714,0.08932684877057784,-0.5852755995884562,-0.08832697424264054,-0.19993728608612965,0.11757333715295432,-0.16700856794674845,0.14784348960004054,-0.3902960724258854,0.05811311970988235,-0.02312495646297853,0.2819699826592172,-0.08714386604746255,Stance
40289,-0.02,0.14,0.99,-0.05,0.16,0.18,0.02,0.14,0.92,-0.11,-0.09,0.45,0.03,0.11,1.01,-0.5,-0.04,-0.55,0.02,0.02,0.94,0.89,0.42,0.99,0.02,0.11,0.95,-0.08,0.33,-0.54,0.03,0.12,0.92,-0.1,-0.11,-0.31,2290.763921748791,1200.6121867930412,-0.47806943617130104,0.17601012490208628,-0.49791712558372886,-0.30573757930676326,-0.04527102802603305,0.406688198363856,-0.11809678233390085,0.08515506941942058,-0.5639790838974418,-0.08964584411582892,-0.18438506177408662,0.12027646031228147,-0.166154273808399,0.14016678534295784,-0.39670996392992075,0.07609012711407476,-0.024970786479095505,0.291968449098526,-0.08994031486871587,Stance
40293,-0.03,0.15,0.99,-0.09,-0.05,0.22,0.02,0.14,0.92,-0.06,0.23,0.55,0.03,0.11,1.0,-0.34,-0.05,-0.5,0.02,0.02,0.93,0.77,0.33,0.89,0.01,0.12,0.95,-0.32,0.39,-0.44,0.03,0.12,0.92,-0.04,0.03,-0.24,2321.199955921761,1199.9109933015022,-0.4706430972883353,0.1585416274427633,-0.48802245974783565,-0.2771668843170997,-0.07173320537977643,0.4186754626675133,-0.11557886799795401,0.07860413195940957,-0.5386925005407832,-0.08928856399802713,-0.17555858922999296,0.11932547096778844,-0.15224636824287613,0.12887634208852286,-0.39436219929382577,0.09545129823324536,-0.024654676862389834,0.3004873878031958,-0.09270263161251108,Stance
40297,-0.03,0.15,0.98,-0.08,-0.07,0.3,0.02,0.14,0.92,0.11,-0.1,0.45,0.03,0.11,1.0,-0.18,-0.15,-0.46,0.02,0.03,0.93,0.85,0.24,0.84,0.02,0.11,0.94,-0.15,0.41,-0.52,0.02,0.12,0.93,-0.08,-0.06,-0.14,2289.896580171672,1205.7562454206386,-0.45112386833959306,0.13945881037306784,-0.47815994649065546,-0.2601308689653477,-0.08831791748221907,0.4245627752857155,-0.10962225153308447,0.06930180217143378,-0.5112501561798914,-0.08688667871338727,-0.17244849041587904,0.11494024593406771,-0.12917086499517264,0.11594180773861852,-0.3834657317638098,0.11411898987022366,-0.022516099010431376,0.3061002726826979,-0.0954565345250834,Stance
40301,-0.03,0.14,0.98,0.03,-0.21,0.24,0.02,0.14,0.92,0.09,0.14,0.7,0.03,0.11,1.01,-0.16,-0.23,-0.55,0.02,0.03,0.91,0.8,0.47,0.91,0.02,0.11,0.94,-0.15,0.3,-0.21,0.03,0.11,0.93,0.08,-0.02,-0.22,2285.581148823899,1207.2806434556685,-0.421419039340275,0.11922974376579977,-0.4687950605772005,-0.25438508231319,-0.09335805477223909,0.42387722688506957,-0.10094665303181592,0.057267968710998006,-0.4838818035156693,-0.08278305561361671,-0.1733487310760857,0.10731707235395967,-0.10106777280312894,0.10343844642053193,-0.3648068643432129,0.13040105345642422,-0.018783918825220878,0.30724127389135464,-0.0982247643760655,Stance
40305,-0.02,0.15,0.98,0.29,-0.14,0.23,0.03,0.14,0.92,-0.09,0.09,0.62,0.03,0.11,1.01,-0.1,-0.15,-0.55,0.02,0.02,0.92,0.91,0.4,0.96,0.02,0.11,0.95,-0.14,0.33,-0.36,0.03,0.12,0.93,0.2,-0.05,-0.27,2289.752106776962,1209.4353504115595,-0.3850383922367591,0.09889603605938589,-0.46000602423590686,-0.25893872465313417,-0.0867883669036552,0.41662402737976617,-0.09069530381396045,0.04302466395116852,-0.4588617867770145,-0.07774068312759168,-0.17661997609909408,0.09679733158787583,-0.07146798913740093,0.09308380782435663,-0.339744662983955,0.14341866507194787,-0.013646847890656892,0.3025110091296165,-0.10102207496004284,Stance
40309,-0.03,0.14,0.98,-0.14,-0.04,0.29,0.03,0.14,0.92,-0.14,0.01,0.56,0.03,0.11,1.01,-0.09,-0.18,-0.32,0.02,0.03,0.93,0.72,0.33,0.85,0.02,0.11,0.96,-0.11,0.22,-0.27,0.03,0.11,0.92,0.4,-0.26,-0.19,2284.385918425026,1204.149127381094,-0.3463761322986616,0.08006431755550819,-0.4516430246786651,-0.27200311974434466,-0.06973137392432312,0.4034138395345858,-0.0801811968486376,0.027397714448408456,-0.4380377630002028,-0.07218226633148697,-0.18115442716283964,0.08395477755702661,-0.042842349421819775,0.08597313624869077,-0.3104491558864875,0.15283714241371316,-0.007189214394497988,0.2911836344723577,-0.10385264068666039,Stance
40313,-0.02,0.15,0.98,-0.07,-0.15,0.02,0.01,0.14,0.92,0.18,0.0,0.53,0.03,0.11,1.01,0.0,-0.3,-0.15,0.02,0.02,0.93,0.63,0.56,0.89,0.02,0.11,0.95,-0.19,0.18,-0.27,0.03,0.12,0.92,0.3,-0.15,-0.17,2290.0794867544714,1207.261594348818,-0.30975374066776395,0.064562626984688,-0.4435142616789519,-0.29112992536258997,-0.044332471110961336,0.3856028954315971,-0.0707993017387669,0.011207011619699779,-0.42265871083477874,-0.0660133085897082,-0.18626071978498493,0.0695409345122019,-0.016447815541243374,0.08256045771440917,-0.2796527963855418,0.15818037024954665,0.0005579646295483615,0.27334822241744894,-0.10671080751427431,Stance
40317,-0.03,0.15,1.0,-0.05,-0.18,0.28,0.02,0.14,0.93,0.05,0.0,0.4,0.03,0.11,1.01,-0.05,-0.28,-0.27,0.03,0.03,0.93,0.76,0.54,0.82,0.01,0.11,0.96,0.06,0.34,-0.31,0.03,0.12,0.92,0.4,-0.27,-0.17,2285.213523186434,1205.0609659937804,-0.2787880862903282,0.05396737636475869,-0.435278661466265,-0.31368845343418117,-0.013651383009760846,0.36521893400086225,-0.06401650756918158,-0.004985259004165805,-0.41342161179652526,-0.059390074306063245,-0.19144598686442985,0.05425795947571185,0.0077671084112954265,0.08247192836898344,-0.24976253727069597,0.1587984808452103,0.00925046937575538,0.24959039623218662,-0.10958344578669893,Stance
40321,-0.02,0.15,0.99,0.03,-0.06,0.19,0.02,0.14,0.92,0.08,0.11,0.59,0.03,0.11,1.0,-0.19,-0.11,-0.17,0.02,0.03,0.93,0.6,0.79,0.59,0.02,0.11,0.95,-0.02,0.24,-0.15,0.03,0.11,0.92,0.47,-0.26,-0.28,2289.804645260093,1205.9297168623907,-0.2562142945417735,0.049311904469975874,-0.4263370178124791,-0.3371886427435734,0.01885129991903893,0.34470370835070996,-0.0610857058730156,-0.02077983376828091,-0.41046615591589236,-0.05333524617554586,-0.19648047785185652,0.03862297364438643,0.0310652597482244,0.08421699328846412,-0.22217107309282938,0.15446858726301635,0.01795356929241625,0.2206425730056213,-0.11245233967059581,Stance
40325,-0.02,0.16,0.99,0.12,-0.11,-0.05,0.02,0.15,0.92,0.04,0.18,0.44,0.03,0.11,1.02,-0.26,-0.06,-0.21,0.03,0.02,0.93,0.66,0.98,0.69,0.02,0.11,0.95,-0.06,0.12,-0.25,0.04,0.12,0.93,0.5,-0.2,-0.2,2285.424592708341,1203.2044865266687,-0.2437065123767952,0.05093077848910366,-0.41602740898808477,-0.3592669961921973,0.05022926186162848,0.3263460432435199,-0.06255873751053713,-0.03566867838213057,-0.41319728499476854,-0.049561425346978286,-0.2013971877433459,0.023080991762930055,0.05529865721552148,0.08540630833703997,-0.19719929971030584,0.14571390255933284,0.025304671044474102,0.18739488464972825,-0.11529618347645798,Stance
40329,-0.03,0.16,0.98,0.0,-0.19,0.19,0.02,0.15,0.92,-0.03,0.03,0.22,0.02,0.11,1.01,-0.1,-0.02,-0.05,0.02,0.03,0.93,0.75,0.78,0.76,0.01,0.12,0.96,-0.18,0.25,-0.33,0.03,0.12,0.92,0.4,-0.06,-0.17,2289.7309002276916,1207.2184635961494,-0.24160077292626758,0.05853714152938606,-0.40388466878923185,-0.37756814468932987,0.07912707257180149,0.31174219492467053,-0.06819807379709741,-0.04909488613491843,-0.42009228452455905,-0.04997731997078057,-0.2063030310324159,0.007851273984974443,0.0819718331387648,0.08350919421099137,-0.17418459744821654,0.13367837009100111,0.02992326378816458,0.15103295018984983,-0.11809245611897315,Stance
40333,-0.03,0.15,0.99,0.14,-0.2,0.12,0.02,0.14,0.93,-0.07,0.18,0.38,0.03,0.11,1.01,0.08,0.02,-0.49,0.02,0.03,0.94,0.47,0.63,0.68,0.01,0.12,0.95,-0.08,0.18,-0.49,0.04,0.12,0.92,0.38,-0.26,-0.17,2283.354387797943,1200.6134236870826,-0.24890071179566847,0.07159852879072981,-0.38962966465738014,-0.38955899447502634,0.10620607083470816,0.30184177954745905,-0.07738274687149349,-0.06062257624237544,-0.4289584750002962,-0.05637756654175609,-0.21143611495569004,-0.007326803941293735,0.11183831819665739,0.07660485060123966,-0.15157919761808367,0.11984146200028994,0.030601851249633084,0.11273942307666984,-0.12081912401196265,Stance
40337,-0.03,0.15,0.98,0.29,0.04,0.25,0.02,0.15,0.92,-0.07,0.24,0.47,0.03,0.12,1.0,-0.17,-0.02,-0.24,0.02,0.03,0.94,0.59,0.56,0.56,0.01,0.11,0.95,-0.11,0.18,-0.26,0.03,0.12,0.92,0.37,-0.18,-0.25,2286.362843308366,1208.650490304999,-0.2635878817957108,0.08948387807665509,-0.3730817856992862,-0.3925768071781433,0.13330841226724793,0.2971730637657829,-0.08941142915390805,-0.06985049465273174,-0.437561194726876,-0.07016018242777416,-0.21733568059177719,-0.02288895254347605,0.1452435714168885,0.06386601386259687,-0.12756791988631466,0.10567627103887652,0.026359979295614257,0.07342055447467125,-0.12345579108085178,Stance
40341,-0.03,0.16,0.99,0.34,0.02,-0.07,0.02,0.14,0.92,0.01,0.09,0.26,0.03,0.12,1.01,-0.07,-0.11,-0.41,0.02,0.02,0.91,0.56,0.71,0.74,0.02,0.12,0.95,-0.19,0.08,-0.5,0.03,0.13,0.92,0.12,-0.11,-0.07,2283.9493001590645,1200.4385506561994,-0.2830187300755265,0.11120397405888793,-0.35424944713836964,-0.3842119274749762,0.16214294900734133,0.2976772142016358,-0.10347469548816697,-0.07636971802255775,-0.4439617739942981,-0.09156447663068373,-0.22446112319760878,-0.038977356691662454,0.1822742859629428,0.04575421923035562,-0.10106052379336962,0.09247041969368643,0.016731706384434813,0.03413274112274619,-0.12598391686582497,Stance
40345,-0.03,0.15,0.98,-0.07,-0.11,0.18,0.02,0.14,0.92,0.03,0.26,0.05,0.03,0.11,1.01,0.03,-0.13,-0.01,0.02,0.02,0.93,0.48,0.73,0.71,0.02,0.12,0.94,-0.04,0.22,-0.4,0.03,0.12,0.92,0.1,-0.07,-0.2,2287.7074256429623,1204.2341506096284,-0.30455233025813355,0.13531269720757677,-0.333392438761351,-0.36259093491383027,0.19362560193402906,0.30256838288935134,-0.11856780012294096,-0.07992693477140941,-0.44654226406013586,-0.11882167760280893,-0.23242638375306227,-0.05546656151604791,0.22232621858454962,0.02387740930473808,-0.07217262987209001,0.08152226667782392,0.0020496678367890007,-0.0035883240338846997,-0.12838582910668156,Stance
40349,-0.03,0.15,0.98,-0.06,-0.15,0.24,0.02,0.14,0.92,-0.18,0.07,0.27,0.03,0.12,1.01,0.17,-0.18,-0.15,0.02,0.02,0.93,0.39,0.66,0.75,0.02,0.12,0.95,-0.2,0.2,-0.43,0.04,0.12,0.92,0.29,-0.12,-0.04,2284.406192694659,1203.1512099029385,-0.3262499335765025,0.16009272898939844,-0.31094251850764426,-0.32669624359283966,0.22788550478911382,0.3105982608621489,-0.1333777082859871,-0.08043812764402047,-0.44411992931963346,-0.14832070670362446,-0.23975454719189893,-0.0720609373066076,0.26391569467050263,0.0006631846998377164,-0.04185787028492815,0.07445319908508119,-0.01647225265470021,-0.03819996706332998,-0.13064363814639557,Stance
40353,-0.03,0.15,0.99,-0.29,-0.3,-0.09,0.01,0.14,0.92,-0.23,-0.05,0.18,0.03,0.11,1.01,0.04,-0.37,-0.1,0.02,0.02,0.94,0.5,0.82,0.76,0.02,0.11,0.96,-0.26,-0.02,-0.31,0.03,0.12,0.92,0.17,-0.02,-0.23,2288.0340135844526,1203.231093709877,-0.3469461671574901,0.18362426107253776,-0.28750014948409613,-0.2770286843210043,0.26427991303628845,0.32037320758128723,-0.14621795059320145,-0.07786142706054339,-0.4359848284258419,-0.1757997725280054,-0.24438416819145992,-0.08796767029552616,0.3050059523960487,-0.021009615201224255,-0.011270538353269369,0.07301763734923428,-0.0368488294731652,-0.06855265152771275,-0.13274024854871008,Stance
40357,-0.01,0.16,0.98,-0.31,-0.49,-0.08,0.02,0.14,0.92,-0.16,0.02,0.04,0.03,0.11,1.01,0.21,-0.32,-0.01,0.02,0.03,0.93,0.5,0.73,0.6,0.02,0.11,0.96,-0.27,0.26,-0.57,0.03,0.12,0.91,0.05,0.05,0.05,2284.570009855905,1200.922726381977,-0.3658745427202307,0.20378508790111577,-0.2639533640563014,-0.21623006206105888,0.3012781465064303,0.33038274173532156,-0.15530784261636726,-0.07235197903946149,-0.421777862861887,-0.19762563163295765,-0.24458745817660207,-0.10190457147922004,0.3432012754260882,-0.03833790868405512,0.018493602892606414,0.07838281635875348,-0.056788575381144075,-0.09369685126137248,-0.13466252985460528,Stance
40361,-0.03,0.15,0.98,-0.08,-0.22,-0.02,0.02,0.13,0.92,-0.01,-0.15,-0.01,0.03,0.11,1.0,0.26,-0.4,-0.02,0.02,0.03,0.94,0.64,0.83,0.79,0.02,0.11,0.95,-0.3,0.14,-0.31,0.02,0.11,0.92,0.29,0.12,0.08,2286.929118867019,1203.458831375733,-0.3825715363642246,0.21850955770572242,-0.2413662239946973,-0.1493242044470395,0.3363788404173261,0.3387344068395572,-0.15921667821402133,-0.06444691287529349,-0.4016006754726185,-0.2115429143489537,-0.23998314356348985,-0.11282168912286406,0.37570894221839235,-0.04917419377958176,0.046408153242238875,0.0906944518755694,-0.07425491879045597,-0.1128890439537328,-0.13640351321892044,Stance
40365,-0.02,0.15,0.98,-0.22,-0.08,0.08,0.02,0.14,0.92,-0.15,-0.02,0.11,0.03,0.11,1.0,0.44,-0.27,0.02,0.02,0.03,0.92,1.01,1.13,0.91,0.01,0.11,0.96,-0.36,0.25,-0.39,0.03,0.12,0.92,0.16,0.22,0.02,2284.241832238013,1200.2953476047885,-0.3967718558940543,0.22630756681509417,-0.2204775681073327,-0.0834795285974727,0.36620839071545047,0.3430517699985078,-0.15716784461519262,-0.05485655874387779,-0.3762283923405468,-0.2166244360561026,-0.23188274642207116,-0.1203083229773886,0.3995901152818915,-0.0523071480378368,0.07160396646186559,0.10930864631999444,-0.0877789542867846,-0.12601388493315444,-0.13796195554003376,Stance
40369,-0.02,0.15,0.97,-0.15,0.01,-0.1,0.02,0.14,0.91,0.01,0.05,0.01,0.03,0.11,1.0,0.38,-0.45,-0.11,0.02,0.03,0.92,1.28,1.01,0.82,0.02,0.1,0.95,-0.15,0.18,-0.31,0.03,0.12,0.93,-0.03,0.05,0.02,2288.229950457164,1202.3251162512745,-0.40813028656790595,0.22675990284891093,-0.20136157745808134,-0.026929323827192854,0.3871145586607924,0.3409576014005325,-0.14918428125109337,-0.04419087454256096,-0.3470332016696314,-0.2127724628176828,-0.22246926739818063,-0.12430404410601648,0.41237682070542253,-0.04744433593420787,0.09333645069412194,0.13312139731008235,-0.09646092943826505,-0.13375500343939933,-0.1393411055814966,Stance
40373,-0.02,0.15,0.98,-0.21,-0.15,0.02,0.03,0.14,0.92,-0.1,-0.21,0.27,0.03,0.1,1.01,0.66,-0.23,0.15,0.02,0.03,0.93,1.4,1.08,0.89,0.02,0.11,0.95,-0.21,0.25,-0.23,0.02,0.12,0.92,0.04,-0.07,-0.05,2284.268432950075,1201.1634444520705,-0.41644710078154096,0.2205244799533202,-0.1836406344130815,0.012928902373689452,0.39595288088579433,0.33067946858602615,-0.13591256438474927,-0.032892024064379244,-0.31576857838831524,-0.20049341969511478,-0.21364821190007524,-0.12486769008469603,0.4127607497316366,-0.03517972330861903,0.11075943171407486,0.16060432775181535,-0.09971926353190097,-0.13731347732430993,-0.14054722708661155,Stance
40377,-0.02,0.14,0.98,-0.27,-0.12,0.0,0.02,0.14,0.92,0.03,-0.16,0.25,0.03,0.11,1.01,0.27,-0.24,0.02,0.02,0.02,0.93,1.41,1.4,0.92,0.01,0.11,0.96,-0.31,0.18,-0.21,0.03,0.11,0.92,0.07,0.16,-0.06,2288.4585889549116,1201.258061250723,-0.42222328217641236,0.20881363064608235,-0.16697823435218273,0.03136609108728418,0.39063329726924123,0.3113458163137147,-0.11827720663248001,-0.021266685527658473,-0.2843523675443004,-0.1810676486241297,-0.2066490482861462,-0.12223879676277646,0.4011677155935289,-0.016898793074116566,0.12289154454295118,0.18971478997496627,-0.09734455160016027,-0.13779430273043408,-0.1415875016138557,Stance
40381,-0.03,0.14,0.98,0.11,-0.11,0.08,0.03,0.14,0.92,0.09,-0.02,-0.1,0.03,0.1,1.01,0.35,-0.2,0.1,0.01,0.03,0.92,1.4,1.16,0.79,0.02,0.11,0.95,-0.21,0.15,-0.23,0.03,0.11,0.92,0.23,-0.01,0.04,2283.018043172221,1200.709820491175,-0.4266643310771279,0.19309313593242275,-0.15150737884825113,0.027346542891445755,0.370845800604252,0.28319012325807474,-0.09752011999737188,-0.009632345810414781,-0.2546573300563266,-0.1567183525222902,-0.20230961800646324,-0.11676920753410014,0.3798192594214506,0.005560327486010621,0.12885301480226152,0.2178848432884534,-0.0899773348811912,-0.13563548512314041,-0.14246905059473824,Stance
40385,-0.02,0.14,0.99,0.16,-0.05,-0.02,0.02,0.14,0.92,0.09,-0.02,0.17,0.03,0.11,1.01,0.14,-0.24,0.27,0.03,0.02,0.93,1.07,0.93,0.67,0.02,0.11,0.96,-0.1,0.23,-0.11,0.03,0.12,0.92,0.22,-0.02,0.11,2288.9026821725993,1202.5196532167815,-0.43102068020649054,0.17520613294573775,-0.1379001014749347,0.0036428554195478274,0.33867433026839566,0.24756396672456496,-0.07543336265592396,0.0014136633763281903,-0.22844184152333097,-0.13014338855590185,-0.20130646845569491,-0.10869763865206628,0.3520818536710883,0.030206384605368244,0.12814253351744942,0.2421977593438234,-0.07919806899084555,-0.13080102163586066,-0.14319947980979314,Stance
40389,-0.03,0.15,0.98,0.06,0.08,0.04,0.02,0.14,0.91,0.22,0.06,0.09,0.03,0.11,1.01,0.16,-0.17,-0.01,0.02,0.03,0.93,0.76,0.76,0.78,0.01,0.11,0.96,-0.19,0.33,-0.11,0.04,0.11,0.94,0.13,-0.11,0.01,2283.154653936229,1201.739139526739,-0.4358659363393363,0.15729021254692085,-0.12708272730597137,-0.034081337572049474,0.29804240012973965,0.20659935735257964,-0.054236943383645896,0.010902515065928611,-0.2072890481935324,-0.10344020739066544,-0.20394418324461555,-0.09809181930952904,0.32162547153475707,0.054882859449777714,0.12097426237791002,0.25967638392753994,-0.06705259075301402,-0.12338650565006652,-0.14378772049501004,Stance
40393,-0.02,0.15,0.99,0.14,-0.05,0.0,0.01,0.14,0.92,0.46,0.21,0.18,0.03,0.1,1.01,0.15,-0.03,0.02,0.02,0.02,0.93,0.74,0.84,0.61,0.02,0.12,0.95,-0.08,0.45,-0.18,0.03,0.12,0.92,-0.05,-0.23,0.11,2286.554608839567,1202.01867641464,-0.44097691354606605,0.14131235471746498,-0.12003176189033435,-0.07909946483717029,0.25336848316003796,0.16295495710973826,-0.03632953501289833,0.017900540274627532,-0.19246791513940573,-0.07745874130762696,-0.20964260762312525,-0.08499382959068215,0.291871284610749,0.0772346950777158,0.10836387127959027,0.26775527605541144,-0.05547123801584305,-0.11369132970909585,-0.14424603446038622,Stance
40397,-0.03,0.14,0.98,0.06,-0.31,-0.12,0.02,0.14,0.92,0.16,0.15,0.16,0.03,0.1,1.01,0.24,-0.02,0.0,0.01,0.02,0.93,0.66,0.42,0.38,0.01,0.12,0.94,-0.08,0.15,-0.09,0.03,0.11,0.92,0.08,-0.02,0.14,2290.988283371445,1200.3920960393928,-0.4458920468523241,0.12858615749965094,-0.11773016092181021,-0.12536478390587028,0.2085178678075918,0.11966373836940183,-0.02419917087664824,0.022094862880466755,-0.18494620442297374,-0.051929150019300915,-0.2167503772315276,-0.0696791789790338,0.2658892959783117,0.0950153584821445,0.091684306942662,0.2650522511700885,-0.045652004220344225,-0.1019259631540486,-0.14459300177198398,Stance
40401,-0.03,0.15,0.98,-0.16,-0.11,0.3,0.02,0.14,0.91,0.04,-0.07,0.15,0.03,0.11,1.0,-0.07,-0.1,0.04,0.02,0.02,0.93,0.58,0.68,0.48,0.02,0.11,0.96,0.11,0.23,-0.15,0.03,0.12,0.93,0.02,-0.01,0.14,2282.173480221831,1201.9651373926824,-0.450455841121734,0.11976339967933919,-0.12097250625329885,-0.16838401562161387,0.16606839978214397,0.07959071767622641,-0.020199813848988557,0.023778347888818902,-0.18551110505828652,-0.02598418253538636,-0.22314432909459717,-0.05288954249748204,0.24657364228820305,0.10652369997960844,0.0722807556882079,0.2516877225347669,-0.03769327627961456,-0.08806216846060173,-0.14485400318105046,Stance
40405,-0.03,0.15,0.98,-0.17,-0.28,-0.01,0.02,0.14,0.92,0.21,-0.03,0.12,0.02,0.1,1.01,-0.06,0.03,-0.05,0.02,0.02,0.93,0.62,0.82,0.43,0.01,0.11,0.95,0.1,0.24,0.07,0.03,0.12,0.92,-0.05,-0.21,0.08,2280.1277135941777,1200.7806370646983,-0.45495505862831265,0.11528047312007067,-0.13010451184315466,-0.20547954226608536,0.12699955503760763,0.04483773207569003,-0.025956063616637128,0.023249664641213474,-0.19466643491819194,0.0008545792801609169,-0.22699321360049352,-0.035639009071786035,0.23642232054124554,0.1107445035206516,0.051503969093400145,0.2286610277776743,-0.031019374948342688,-0.0719002596238855,-0.14505840797011862,Stance
40409,-0.02,0.15,0.97,-0.07,-0.29,0.16,0.02,0.14,0.92,0.31,0.15,0.16,0.03,0.11,1.01,-0.11,0.08,-0.15,0.02,0.03,0.92,0.74,0.74,0.62,0.02,0.11,0.95,-0.1,0.21,-0.27,0.02,0.11,0.92,0.02,-0.12,0.1,2284.809179079574,1201.4615026468557,-0.460187127991565,0.11547734194643196,-0.1449731770243211,-0.2356915983430699,0.091390495429433,0.01681151821246003,-0.0417463583670939,0.020427230427050674,-0.2123053002316175,0.027468098917900502,-0.22711206947496332,-0.01879488913507087,0.23674239167571506,0.10740409544909951,0.030733179326627145,0.197405096665612,-0.025136674788324688,-0.053296748348664685,-0.1452368937471515,Stance
40413,-0.03,0.15,0.99,0.38,-0.11,0.14,0.02,0.14,0.92,0.12,-0.05,0.07,0.03,0.11,1.01,-0.18,-0.1,0.0,0.02,0.03,0.93,0.76,0.78,0.43,0.01,0.12,0.95,-0.12,0.43,-0.24,0.03,0.12,0.92,0.06,-0.03,0.05,2278.4368945931615,1200.906714977965,-0.4675141461156781,0.1203148609225995,-0.16500889224663526,-0.2591780887512018,0.059554024233048876,-0.003167020223908112,-0.06650547624718534,0.014971550989886468,-0.23769563853858228,0.050766692152336805,-0.22313772907336615,-0.0030224353440178714,0.2468695503427326,0.09723394956283947,0.011173651001394197,0.16028518370870795,-0.01981668617300488,-0.032440041649512946,-0.1454209717774779,Stance
40417,-0.02,0.15,0.98,0.51,-0.26,0.13,0.02,0.14,0.92,-0.21,-0.12,0.28,0.03,0.1,1.0,0.16,-0.18,-0.28,0.02,0.03,0.93,0.79,0.56,0.27,0.02,0.12,0.96,-0.12,0.2,-0.04,0.03,0.12,0.92,0.34,-0.05,-0.06,2284.4413188766007,1201.391497031858,-0.4784476642780235,0.12941797063496074,-0.18933371212432273,-0.2763196690646845,0.032568555011362695,-0.013521982059748418,-0.0983680556034774,0.006689761514843684,-0.26984897212044673,0.06686347145723827,-0.2155050497690118,0.011116217962827217,0.2638267714375875,0.08195946864043392,-0.006313566513779797,0.12093675288942918,-0.015062325409615442,-0.010067336164175529,-0.14564358984946432,Stance
40421,-0.02,0.14,0.98,0.39,-0.15,0.23,0.02,0.14,0.92,-0.08,0.24,0.34,0.03,0.11,1.01,0.19,-0.05,-0.1,0.01,0.03,0.93,0.41,0.56,0.3,0.02,0.12,0.95,-0.17,0.23,-0.18,0.03,0.12,0.92,0.08,-0.11,0.04,2279.3287763474336,1200.2984068221913,-0.49371490887205927,0.1423694790623268,-0.2169387164256065,-0.2872247847498648,0.012076491130316266,-0.01289335122515132,-0.13503160252123514,-0.004203898726891697,-0.30743516653178526,0.07305236356637435,-0.20524022318043975,0.02319908977359671,0.2827071480732143,0.06379910416137338,-0.021348380066823644,0.08350511980588925,-0.011388112070056728,0.012631834715753982,-0.1459391383909054,Stance
40425,-0.03,0.14,0.98,0.26,-0.19,0.24,0.02,0.14,0.92,-0.21,0.31,0.4,0.03,0.11,1.0,0.43,-0.29,-0.18,0.02,0.03,0.93,0.59,0.56,0.43,0.01,0.12,0.96,-0.34,0.2,-0.47,0.03,0.13,0.91,-0.02,-0.07,-0.05,2285.8924800970694,1200.9837170004157,-0.5126323538691908,0.15869072180840058,-0.24676231095040627,-0.29214273350203945,-0.00023317382984423056,-0.0008544985041589056,-0.17384272886498725,-0.01727920581666929,-0.348360481713646,0.06895958137000642,-0.19389485088643502,0.03307880894935335,0.29780895045136113,0.04505642150165251,-0.03419317500822312,0.05159681253292434,-0.009570137723432947,0.03457068961703288,-0.14634265248055295,Stance
40429,-0.03,0.15,0.98,0.12,0.09,0.16,0.02,0.14,0.92,-0.21,0.02,0.27,0.03,0.11,1.01,0.42,-0.21,-0.1,0.02,0.04,0.92,0.5,0.48,0.35,0.02,0.12,0.95,-0.42,0.27,-0.41,0.04,0.12,0.93,0.1,-0.07,-0.08,2278.1730454586045,1200.4741428496425,-0.533354772719037,0.17758257463411828,-0.27757860370727827,-0.2922847565453117,-0.003006577232618285,0.02193747281153706,-0.21210731457910212,-0.03213765651590892,-0.3900746747238176,0.056223359247069546,-0.1834095466556819,0.041074038973392506,0.3039754100466126,0.027910619219904318,-0.045677996063201526,0.027843266580085256,-0.00962919634927586,0.05530385246797783,-0.1468889832211456,Stance
40433,-0.02,0.15,0.99,0.06,-0.18,0.05,0.02,0.14,0.92,-0.16,-0.01,0.28,0.03,0.11,1.0,0.38,-0.12,-0.13,0.02,0.03,0.93,0.68,0.25,0.43,0.02,0.12,0.96,-0.37,0.24,-0.44,0.03,0.12,0.92,-0.14,0.05,-0.15,2289.5080581134625,1198.5675835116083,-0.553370213339405,0.1978165627428621,-0.30796494643808126,-0.2901220472603734,0.00440698325661669,0.053928599672847966,-0.24763715557280805,-0.04830477310339351,-0.4303373864186529,0.03742426218278736,-0.17564687043011415,0.04787878798057889,0.2975924123199904,0.014219865318749364,-0.056905990229231075,0.013860380258096787,-0.010471970619247609,0.07499179156342464,-0.1476120258850883,Stance
40437,-0.02,0.14,0.98,-0.1,-0.13,0.15,0.03,0.14,0.92,-0.38,0.07,0.44,0.03,0.11,1.0,0.44,-0.33,-0.09,0.02,0.03,0.93,0.69,0.59,0.5,0.02,0.12,0.94,-0.32,0.24,-0.39,0.03,0.13,0.92,-0.18,0.06,-0.18,2225.417625449915,1203.3278164012445,-0.5698670602522622,0.21791043449014344,-0.33645547424305183,-0.2890212121170864,0.021312227637654464,0.09272615265411487,-0.278966296900872,-0.06494764976853748,-0.46742165540792435,0.015015926464868977,-0.17210468712640975,0.05404849692709086,0.27704569887676433,0.005555491895486827,-0.06896493237964531,0.010212897792239323,-0.010613228486069255,0.09400952810403866,-0.14854295599015716,Stance
40441,-0.03,0.14,0.99,0.02,0.04,0.2,0.02,0.14,0.92,-0.2,-0.08,0.18,0.03,0.11,1.01,0.35,-0.23,-0.24,0.02,0.04,0.94,0.82,0.53,0.65,0.02,0.12,0.96,-0.37,0.11,-0.5,0.03,0.12,0.92,-0.23,0.16,-0.27,2266.44367943312,1216.409244401211,-0.5803173494789378,0.2364864768682088,-0.36175582963457364,-0.29255891088904634,0.045344413761123324,0.1352319623433045,-0.3050127133541221,-0.08075096066890926,-0.49978236786939484,-0.009487642131612748,-0.17408823051794617,0.05959935579792301,0.24284144609301497,0.003253222160806734,-0.08276096378486245,0.01621031659336173,-0.008866968156819621,0.11272823801352896,-0.1497071244901152,Stance
40445,-0.02,0.15,0.98,0.23,0.13,0.23,0.02,0.14,0.92,-0.16,0.05,0.36,0.04,0.11,1.0,0.17,-0.33,-0.13,0.02,0.03,0.92,0.9,0.63,0.72,0.02,0.12,0.95,-0.45,0.05,-0.56,0.03,0.12,0.92,-0.16,0.04,-0.31,2282.3858297020033,1196.7191450218072,-0.5830564252891356,0.2525804167333001,-0.3830075851365636,-0.3036864950987594,0.07287631476706388,0.1780944971796673,-0.3246671718573878,-0.09414910263668443,-0.5258312930930138,-0.03570518851483379,-0.18256397386384945,0.06413863269190101,0.19756936876615958,0.008163492506812389,-0.09907134677608898,0.029712042028990988,-0.004602909611825922,0.1313224264486221,-0.15112114832369197,Stance
40449,-0.03,0.15,0.98,0.08,-0.06,0.15,0.02,0.13,0.92,-0.24,-0.04,0.43,0.03,0.11,1.01,0.1,-0.27,-0.17,0.02,0.03,0.93,0.91,0.9,0.89,0.01,0.12,0.95,-0.43,0.09,-0.63,0.04,0.12,0.92,-0.22,0.05,-0.26,2274.170574205767,1202.2634115368205,-0.5774601020355854,0.2656302148648513,-0.4000511691559486,-0.3238260596633325,0.09969944201486777,0.2183639478218941,-0.33674359069593757,-0.10380705037286163,-0.5440995194856887,-0.06369929684751034,-0.19742506263550805,0.06720446123420601,0.1455021951749815,0.020359109710152187,-0.11863076261779808,0.04727674258903273,0.002119155145603816,0.14949928696651837,-0.15279184578277583,Stance
40453,-0.02,0.14,0.98,0.21,-0.23,0.21,0.02,0.13,0.92,0.22,0.21,0.63,0.03,0.11,1.01,0.02,-0.33,-0.03,0.02,0.03,0.92,0.6,0.71,0.69,0.02,0.12,0.95,-0.57,0.16,-0.76,0.03,0.12,0.91,-0.04,0.05,-0.2,2278.8822990203394,1198.648867409859,-0.5638169469478045,0.2751356454079639,-0.41343047512318837,-0.3522689617158745,0.1217673159186413,0.2540537221707014,-0.3402079732557699,-0.10889787780350518,-0.5536892546724339,-0.0930164874997751,-0.2171873758850053,0.06835823615415039,0.09191438185872844,0.03893780248168073,-0.1419095844298588,0.06458864840496134,0.010600665190620974,0.16673472127716224,-0.1547170373493925,Stance
40457,-0.03,0.14,0.99,-0.2,-0.02,0.31,0.02,0.15,0.92,0.39,0.14,0.17,0.03,0.11,1.01,-0.34,-0.08,-0.31,0.02,0.03,0.93,0.63,0.66,0.86,0.02,0.11,0.95,-0.53,0.07,-0.5,0.03,0.12,0.92,0.1,0.2,-0.25,2277.0619788489225,1201.4876332705508,-0.5428963190896797,0.28041109843411005,-0.4240526915053903,-0.3864000831297459,0.1356683451299397,0.28425158340203316,-0.3345331874392175,-0.10896887044984654,-0.5547193399968326,-0.12230323910984171,-0.23952131218599568,0.06717215564843287,0.04235721513826036,0.061945084188964154,-0.16870362716090329,0.07746998914424817,0.019917680699452767,0.18285426583064143,-0.15688708813127414,Stance
40461,-0.03,0.14,0.99,-0.11,-0.33,0.25,0.02,0.14,0.93,0.1,0.17,0.47,0.03,0.11,1.01,-0.34,-0.18,-0.26,0.02,0.02,0.93,0.31,0.91,0.72,0.01,0.11,0.96,-0.4,-0.02,-0.5,0.03,0.12,0.93,-0.2,0.07,-0.15,2278.013416151936,1198.862828850291,-0.5153183467484181,0.2807271737230952,-0.43277001553419014,-0.4226280611555499,0.1384767379124427,0.3088124396713834,-0.31999954271483294,-0.10384544865889395,-0.5482555798403923,-0.1497496992314472,-0.2617888414931805,0.06347485521431152,0.0016522052303330856,0.08662185093790961,-0.1980735541067957,0.0835241931589943,0.029481196562154612,0.19792989102630154,-0.15928635434762456,Stance
40465,-0.03,0.14,0.99,0.01,-0.27,0.32,0.02,0.14,0.92,-0.18,0.21,0.47,0.03,0.11,1.01,-0.36,0.02,-0.22,0.02,0.02,0.92,0.15,0.84,0.94,0.01,0.11,0.95,-0.6,0.06,-0.73,0.03,0.12,0.92,-0.19,0.26,-0.23,2277.1766428012197,1200.810820153543,-0.4815388333526093,0.27561456189557865,-0.4400586058808333,-0.45760918562619896,0.1277145954363256,0.3280774468348836,-0.2977248445806417,-0.09394269870664294,-0.5358067969466527,-0.17381904503894954,-0.28132356012118853,0.05773242272718932,-0.02727193141518292,0.10988822440649058,-0.22865516660117016,0.08285251918867333,0.03935465481386929,0.21167732637501188,-0.161894394265972,Stance
40469,-0.03,0.14,0.98,-0.23,-0.29,0.1,0.02,0.14,0.92,-0.11,-0.04,0.49,0.03,0.11,1.01,-0.31,0.03,-0.49,0.02,0.02,0.94,0.44,1.02,0.69,0.01,0.11,0.95,-0.39,0.25,-0.38,0.03,0.12,0.91,0.03,0.05,-0.4,2275.6434234938315,1199.1162100925746,-0.44260015203673375,0.2650844663668433,-0.44593246003154285,-0.48943018520212095,0.10197051008256132,0.34278580986452195,-0.2696599345212941,-0.08051303152110903,-0.5191456747101004,-0.1934406082430372,-0.2958247756516659,0.051180976885576275,-0.04398040517116496,0.1288311221847848,-0.25886422034648854,0.07694644631403784,0.05019462865101967,0.22341275962226995,-0.16468753722143037,Stance
40473,-0.03,0.14,0.98,-0.2,-0.37,0.05,0.02,0.14,0.93,0.11,-0.06,0.53,0.03,0.11,1.01,-0.11,0.01,-0.44,0.01,0.03,0.92,0.39,0.68,0.64,0.02,0.11,0.94,-0.28,0.15,-0.57,0.03,0.11,0.93,0.11,0.1,-0.27,2277.5833620198136,1201.108106374768,-0.4004637352222777,0.2496559788608911,-0.45028281542877074,-0.5179411701623255,0.06158646335207869,0.353792669351266,-0.2385950910468731,-0.0653025652816199,-0.5003457719710153,-0.2079391029806452,-0.3036892233583993,0.045466472253134646,-0.05031504515387885,0.1411549152839303,-0.28714053284967417,0.06731374196399341,0.06268855942631878,0.232452498002852,-0.16764105746130684,Stance
40477,-0.03,0.15,0.98,-0.23,-0.27,0.26,0.02,0.14,0.92,-0.09,0.15,0.51,0.02,0.11,1.0,-0.1,0.06,-0.5,0.02,0.02,0.93,0.49,0.6,1.02,0.02,0.11,0.95,-0.19,0.31,-0.53,0.03,0.11,0.92,0.07,0.15,-0.33,2274.0134829146696,1199.9955280615009,-0.35752208480368586,0.23020902496060883,-0.4532953348790214,-0.5439921741770583,0.008669097583460829,0.36154303209999705,-0.20771111600237388,-0.049963827914442455,-0.4816267734424013,-0.2173336905738487,-0.3041258053527265,0.042013794909724296,-0.049590419988608546,0.1454587058714068,-0.31244734115091144,0.055326878497029136,0.07669959244407878,0.23834414592535869,-0.17073058492818985,Stance
40481,-0.02,0.15,0.98,-0.05,-0.33,0.01,0.02,0.14,0.92,-0.31,0.27,0.54,0.03,0.11,1.01,0.01,0.08,-0.34,0.02,0.03,0.93,0.47,0.6,0.79,0.02,0.11,0.95,-0.18,0.23,-0.5,0.03,0.12,0.92,0.07,0.08,-0.22,2276.255716445607,1203.2063774914811,-0.31622265098296604,0.20798542085860575,-0.4554598241371477,-0.5684465176072172,-0.05359071437125496,0.3660819045384923,-0.1798128007572541,-0.03569441229202093,-0.4653715147273686,-0.2225719465138546,-0.29717581947650445,0.04174694241227389,-0.04557252380469508,0.1413304851470079,-0.33450453775722283,0.04249327312551335,0.09106552535598329,0.24094130403752928,-0.17393213018050996,Stance
40485,-0.03,0.14,0.99,-0.06,-0.16,0.32,0.02,0.14,0.93,-0.06,0.29,0.6,0.03,0.11,1.0,0.09,-0.03,-0.4,0.02,0.02,0.92,0.52,0.52,0.81,0.01,0.11,0.95,-0.32,0.14,-0.38,0.03,0.12,0.93,0.27,-0.01,-0.32,2270.4084687873483,1201.403601340717,-0.2791461568103587,0.1847166041977611,-0.4573152101302061,-0.5914830960413956,-0.12149650385007874,0.36755207790491806,-0.15692727233161763,-0.023168530273936266,-0.4542357611062841,-0.2251753787034943,-0.28358364705724365,0.04521024712184997,-0.04158914972435212,0.1294290174661053,-0.3534380195169267,0.030006462786773793,0.10436241534151804,0.24048947778788532,-0.17722122019457742,Stance
40489,-0.02,0.15,0.99,-0.1,-0.22,-0.01,0.02,0.15,0.92,0.04,0.15,0.56,0.03,0.11,1.01,-0.03,-0.08,-0.48,0.01,0.03,0.94,0.25,0.47,0.93,0.02,0.11,0.95,-0.11,0.21,-0.19,0.03,0.12,0.92,0.23,-0.26,-0.45,2275.7823056227367,1209.5619911349654,-0.2489546333014684,0.1623366307603573,-0.4593978042686888,-0.6122327295420306,-0.19088686101237975,0.366321313516073,-0.14044855277553422,-0.012818937936571535,-0.45076020750517215,-0.22660948137194076,-0.26449297877755074,0.05269082128198691,-0.03988317773905868,0.11139996151401017,-0.36927109091716964,0.018357709458680337,0.11569735794755616,0.2378059920695667,-0.18057191975279624,Stance
40493,-0.03,0.15,0.98,-0.05,-0.08,0.08,0.02,0.15,0.92,-0.05,0.28,0.29,0.02,0.1,1.01,-0.11,-0.06,-0.52,0.02,0.03,0.93,0.3,0.34,0.8,0.01,0.12,0.95,-0.11,0.39,-0.34,0.03,0.11,0.92,0.29,-0.05,-0.16,2270.94690244956,1204.789161627078,-0.2280576807260003,0.1422141474095353,-0.46248831131423745,-0.6289812932430663,-0.2570335690475436,0.3629129417392988,-0.1312663593040531,-0.005108849588411459,-0.45651024041058297,-0.22792589928508006,-0.24108210643705108,0.0640782839437529,-0.04143010286627802,0.08953826605385365,-0.38181892908232995,0.007909875430615085,0.12481754999585372,0.23429268982291396,-0.1839579310186968,Stance
40497,-0.03,0.15,0.99,-0.16,-0.25,0.16,0.02,0.14,0.92,-0.18,0.35,0.47,0.03,0.11,1.02,0.05,-0.16,-0.56,0.01,0.03,0.93,0.09,0.1,0.77,0.01,0.12,0.95,-0.29,0.1,-0.5,0.03,0.12,0.92,0.38,-0.03,-0.36,2270.1320177102702,1201.6328808435624,-0.2183177410019694,0.12468643869875544,-0.4676415412211772,-0.6398655978525618,-0.3148358066117374,0.3580195254561533,-0.12958146864225048,-0.0003730488212813008,-0.47152091907625593,-0.22975180162787656,-0.21433614201899204,0.07844071921657118,-0.0462547536618008,0.06649013761632133,-0.39100527411133257,-0.0004358453946446856,0.13196543086311194,0.23140207918161593,-0.18735570567626356,Stance
40501,-0.03,0.15,0.98,-0.22,-0.24,0.34,0.02,0.14,0.92,-0.18,0.03,0.36,0.03,0.11,1.02,0.02,-0.2,-0.42,0.02,0.03,0.93,0.05,0.14,0.89,0.02,0.11,0.95,-0.2,0.28,-0.6,0.03,0.12,0.91,0.27,-0.11,-0.27,2274.997363033144,1200.7456734556745,-0.22081564118645003,0.10935578967029065,-0.47587761812601365,-0.6437110096842437,-0.35942619653170826,0.35234898528535347,-0.13494047042794796,0.001291417032357228,-0.4946945551075012,-0.23250902547460214,-0.18520958878277177,0.0939301358209932,-0.05360689895483455,0.04506103246597657,-0.3971362306419229,-0.0054055296513757355,0.1379108219989713,0.2299605783375398,-0.19074719293487313,Stance
40505,-0.02,0.15,0.98,-0.09,-0.21,0.28,0.03,0.14,0.92,-0.2,0.27,0.58,0.03,0.11,1.02,-0.18,-0.26,-0.59,0.01,0.03,0.92,-0.08,-0.23,0.87,0.02,0.11,0.95,-0.17,0.2,-0.48,0.03,0.12,0.92,0.32,-0.1,-0.29,2275.805761801101,1202.8792537143258,-0.2356965815528261,0.09550809800735041,-0.48800358511919656,-0.6409310106932649,-0.3870105762401612,0.3465862830245983,-0.14654431535368614,-0.00021409117383580444,-0.5246705788850636,-0.23678010860820795,-0.15516853390116647,0.10837946049291204,-0.061812230627343305,0.027934211114726354,-0.400860146780013,-0.0059499143643310815,0.14372352718674208,0.2300231404932225,-0.19412285286779013,Stance
40509,-0.03,0.15,0.98,0.09,0.08,0.37,0.02,0.13,0.92,-0.22,0.13,0.36,0.03,0.11,1.01,-0.19,-0.29,-0.4,0.02,0.03,0.92,0.4,-0.23,0.73,0.02,0.12,0.95,-0.3,0.27,-0.49,0.03,0.12,0.91,0.15,0.02,-0.27,2273.663518701589,1200.4612513521697,-0.26224998047371956,0.08224056202061017,-0.504530881905599,-0.6341438127243837,-0.39590448595047506,0.3415958005599361,-0.1633053982420027,-0.005097626970285915,-0.560155555089444,-0.24331201121205331,-0.12651525961456445,0.11999662991797427,-0.06849880380816707,0.017310775938127843,-0.40300564936510275,-0.0016544942881846776,0.15027350248172583,0.2311636291736551,-0.1974853088060166,Stance
40513,-0.03,0.15,0.98,0.04,0.08,0.27,0.03,0.14,0.92,-0.21,0.26,0.55,0.03,0.11,1.01,-0.17,-0.37,-0.5,0.03,0.03,0.92,0.53,0.12,0.71,0.02,0.12,0.95,-0.22,0.32,-0.55,0.03,0.13,0.92,0.34,-0.11,-0.2,2273.144685453965,1202.258200871377,-0.2990766686761977,0.06866345675417687,-0.5254168547987891,-0.6276057355431189,-0.38749118033526675,0.33830936695619995,-0.18377413030963805,-0.013481639456462016,-0.5995681544150984,-0.25228059933234254,-0.10191288364257971,0.1276646909526373,-0.07129010994084448,0.014552915292048543,-0.4044367723464527,0.007054334387282316,0.1580415053546898,0.2327021040168098,-0.20084972160361636,Stance
40517,-0.03,0.14,0.98,-0.24,0.08,0.31,0.02,0.14,0.92,0.1,0.33,0.55,0.03,0.11,1.0,-0.44,-0.24,-0.4,0.03,0.03,0.92,0.48,0.32,0.74,0.02,0.12,0.95,-0.31,0.17,-0.78,0.03,0.12,0.92,0.01,-0.09,-0.44,2270.9246813365353,1202.083000149495,-0.34411705205440696,0.05414004489489934,-0.5497773877149109,-0.6254881662954023,-0.3660253083764289,0.3372289103145636,-0.20617900471984354,-0.025142980428655787,-0.6407622656849872,-0.2625604575158184,-0.08347916786985554,0.1309021646750297,-0.06845060397932848,0.01987289049110867,-0.4058358134987498,0.018954261808384214,0.16729531120170515,0.23382184955393595,-0.2042383465425021,Stance
40521,-0.02,0.14,0.98,-0.18,0.09,0.34,0.02,0.15,0.92,-0.15,0.07,0.45,0.03,0.11,1.01,-0.05,-0.04,-0.59,0.02,0.03,0.92,0.44,0.6,0.89,0.01,0.12,0.95,-0.33,0.12,-0.61,0.04,0.12,0.92,0.01,-0.08,-0.46,2274.9679026829617,1203.6668116183162,-0.39477429352727605,0.03828936633665033,-0.5759813097488166,-0.6304418404136379,-0.33692972824046336,0.3381783314824969,-0.22846247289097257,-0.03952132701789251,-0.6812669118806386,-0.2719641413895218,-0.0722636851838712,0.12971522491990714,-0.05939743942050096,0.03239522624279448,-0.4075572524882186,0.03253478274460669,0.17831132651181614,0.23378993423566377,-0.20767290844907388,Stance
40525,-0.02,0.15,0.99,-0.26,0.04,0.24,0.02,0.14,0.93,-0.08,0.22,0.61,0.03,0.11,1.01,-0.11,-0.14,-0.36,0.02,0.03,0.93,0.56,0.47,0.79,0.02,0.12,0.94,-0.49,0.18,-0.98,0.03,0.12,0.92,0.07,-0.11,-0.5,2270.4317554314575,1201.8758796866707,-0.44828468671984384,0.020953256380788675,-0.602191601024002,-0.6431746548764815,-0.3047272449064798,0.3405963773951801,-0.24842461086155657,-0.05608626815005504,-0.7186923111418261,-0.27812138865907515,-0.06824688856526777,0.12452965833294823,-0.04478514264786353,0.05081605762857755,-0.40969753445618334,0.04647427585153885,0.19122271977232122,0.23213118433964858,-0.21116986962537687,Stance
40529,-0.03,0.14,0.99,-0.22,-0.01,0.31,0.02,0.15,0.92,0.11,0.28,0.45,0.03,0.11,1.01,-0.1,-0.24,-0.44,0.02,0.03,0.93,0.3,0.15,0.82,0.01,0.11,0.94,-0.55,0.25,-0.69,0.03,0.12,0.91,-0.2,-0.2,-0.6,2273.7977793584746,1201.7179210118,-0.5019255526677071,0.0022196369879875742,-0.6268954174516236,-0.6624398843775012,-0.27205987565703516,0.3439180096644439,-0.26418951383694106,-0.07453228720709784,-0.7510356128818982,-0.2790851141819482,-0.07056752400552599,0.11613999636267877,-0.025954841844125515,0.0739984992281811,-0.4120749327819655,0.059640150943464705,0.2055989646769886,0.22866773802254145,-0.2147391520486261,Stance
40533,-0.02,0.15,0.98,-0.24,0.22,0.24,0.02,0.15,0.92,-0.02,0.31,0.56,0.03,0.11,1.02,-0.06,-0.09,-0.68,0.02,0.02,0.93,0.32,0.34,0.93,0.02,0.11,0.95,-0.46,0.22,-0.9,0.03,0.12,0.92,-0.08,-0.1,-0.44,2268.384913928549,1204.5292900837785,-0.553049689939553,-0.017653667772840477,-0.6491368837347575,-0.6852202025012127,-0.2403462275241926,0.3477083950867611,-0.2748066743700232,-0.09444752824060987,-0.7768081948317251,-0.2735214785357021,-0.07770701565300624,0.10560890094536982,-0.004461173764798216,0.10084124551470733,-0.4141060443410436,0.07117249921711757,0.22044306448034257,0.22354825108906767,-0.21838407057688536,Stance
40537,-0.03,0.15,0.98,-0.24,0.06,0.16,0.03,0.15,0.92,0.1,0.28,0.37,0.03,0.11,1.01,0.08,0.02,-0.52,0.02,0.02,0.92,0.11,0.42,0.76,0.01,0.11,0.95,-0.31,0.05,-0.97,0.03,0.12,0.93,-0.26,-0.15,-0.43,2273.1185256260474,1201.811742364866,-0.5992125813463333,-0.038251581158579566,-0.6683409274847505,-0.7073203733813245,-0.21093395386602717,0.35174948657610144,-0.2804057463905481,-0.11492646759883193,-0.7949977451208786,-0.2607730902075483,-0.08729895932358946,0.09414704839932939,0.018044955256376748,0.12999221845378886,-0.41512850455071215,0.08083202329103947,0.23454791416740364,0.217167773878866,-0.22210105142884135,Stance
40541,-0.03,0.15,0.99,-0.34,-0.43,0.08,0.02,0.14,0.92,-0.24,0.36,0.37,0.03,0.11,1.01,-0.05,-0.15,-0.49,0.02,0.03,0.92,-0.03,0.34,0.8,0.02,0.11,0.96,-0.49,0.05,-0.99,0.03,0.12,0.92,-0.35,-0.17,-0.63,2250.677556050661,1189.2699786483024,-0.6383428876877574,-0.058821351064453395,-0.6838518598436186,-0.7242639261739328,-0.18543169773342427,0.35602024520321945,-0.2817248131871765,-0.13469858796455028,-0.8052765019981428,-0.24100969090965804,-0.09606421080191022,0.08280619928387986,0.03999529887638662,0.1600046555388601,-0.41492261201086766,0.08899654515819408,0.24668548037825924,0.20984513854570552,-0.22587856568926196,Stance
40545,-0.02,0.15,0.98,-0.24,-0.16,0.32,0.02,0.14,0.91,0.05,0.47,0.56,0.03,0.11,1.0,0.02,0.05,-0.4,0.01,0.03,0.92,-0.02,0.73,0.85,0.02,0.11,0.95,-0.35,-0.08,-0.74,0.03,0.11,0.92,-0.18,-0.33,-0.52,2241.8729457154573,1210.8137365960408,-0.668929657452575,-0.07822487495615611,-0.6947859701729171,-0.732330269510778,-0.1653750927397577,0.36043444058464563,-0.2796484105291529,-0.15268089643367647,-0.8083012776723516,-0.21557280386410235,-0.1008453354799096,0.07210059440709923,0.060015956993298536,0.18947678840887044,-0.4136183425195459,0.0961261386180484,0.25574061636775425,0.2014567500627697,-0.2296962287287741,Stance
40549,-0.03,0.15,0.98,-0.11,-0.05,0.08,0.02,0.14,0.93,-0.05,0.49,0.51,0.03,0.11,1.01,0.02,0.06,-0.56,0.02,0.02,0.92,-0.05,0.48,0.76,0.01,0.11,0.95,-0.35,0.11,-0.83,0.03,0.12,0.92,-0.38,-0.2,-0.71,2273.102650206533,1197.3960752650314,-0.690026041110924,-0.09520767665915686,-0.700337541714731,-0.7294261809627439,-0.15163367369122588,0.3646520072136209,-0.27507093827504925,-0.1684360211900385,-0.8053964058024492,-0.18722790137985973,-0.09988776009651744,0.062019668041251884,0.07675434630971362,0.2169940104686385,-0.4112042549493499,0.10227435722592101,0.2611282199380983,0.19154110711502448,-0.23352632390629463,Stance
40553,-0.03,0.15,0.99,0.15,-0.03,0.23,0.03,0.14,0.93,0.12,0.09,0.42,0.03,0.11,1.01,0.14,0.11,-0.54,0.02,0.02,0.93,0.06,0.35,0.89,0.02,0.12,0.94,-0.4,0.02,-0.81,0.03,0.11,0.92,-0.35,-0.29,-0.59,2265.2465035918135,1206.6791476664632,-0.70110356242269,-0.10863616447348888,-0.7001431491592509,-0.7154536782116236,-0.14399903205146047,0.3680663965622875,-0.2687628010320295,-0.18216714380240617,-0.7978598672326319,-0.15979363206120922,-0.09282071903273956,0.05227590511713702,0.08876317459870003,0.24129042136019355,-0.40741299073093884,0.10717794672254713,0.26310036481687893,0.17979301408910164,-0.23733785134428365,Stance
40557,-0.03,0.15,0.98,0.08,-0.17,0.31,0.02,0.14,0.92,-0.07,0.39,0.25,0.03,0.11,1.0,-0.03,0.08,-0.47,0.02,0.03,0.93,-0.08,0.35,0.79,0.02,0.12,0.94,-0.29,0.01,-0.82,0.03,0.11,0.92,-0.37,-0.37,-0.49,2270.77505182112,1200.491107462146,-0.7021382550362177,-0.11754479858539878,-0.6944149328518857,-0.6923129739699818,-0.14166447703432297,0.369833054094382,-0.2612183741386371,-0.19439883928048646,-0.7866437199673196,-0.13712214625775263,-0.07991546082856772,0.04247854359901078,0.09460654669642746,0.26151739137193686,-0.402009214146703,0.11063476099847055,0.26227483200269885,0.16611321313793334,-0.24110074903092105,Stance
40561,-0.02,0.15,0.99,0.1,0.08,0.08,0.02,0.14,0.92,0.05,0.5,0.55,0.03,0.11,1.0,0.21,-0.03,-0.54,0.02,0.03,0.93,0.27,0.49,1.02,0.02,0.11,0.94,-0.5,0.09,-0.87,0.03,0.11,0.91,-0.39,-0.3,-0.62,2266.7602083887173,1203.9654429541297,-0.6938203485938096,-0.12128733879452844,-0.6837137684209964,-0.6638056213553113,-0.14409277174097884,0.36902044850861615,-0.25266118722401654,-0.205752165945283,-0.7724539810597643,-0.12215189746416842,-0.06182307457510972,0.03239865291231591,0.09294438512600342,0.2771965964803363,-0.3949655429221824,0.11261720335290301,0.2590452143615896,0.15013450099590117,-0.24478888538266458,Stance
40565,-0.03,0.15,0.99,0.0,-0.09,0.15,0.01,0.14,0.92,-0.02,0.21,0.48,0.03,0.11,1.01,0.11,0.11,-0.51,0.02,0.03,0.93,0.46,0.47,0.94,0.02,0.11,0.95,-0.34,0.11,-0.82,0.03,0.11,0.92,-0.34,-0.37,-0.53,2270.1829045794266,1201.812563464586,-0.6776602896662949,-0.11977597131279387,-0.6687009406686439,-0.6351047704747413,-0.15118771077785792,0.3650108813536129,-0.24324534760734587,-0.21674696918454908,-0.755976876241331,-0.1166655505960934,-0.039582990996210536,0.022057762214756842,0.08265950030831919,0.28784743295269344,-0.38645877402826234,0.11313523433947723,0.25381897455940555,0.13116476375384217,-0.24838254972602464,Stance
40569,-0.02,0.14,0.99,0.11,0.01,0.07,0.02,0.15,0.93,0.18,0.21,0.54,0.03,0.11,1.01,0.14,0.18,-0.51,0.01,0.03,0.93,0.49,0.48,0.8,0.01,0.11,0.95,-0.35,0.14,-0.75,0.03,0.11,0.92,-0.31,-0.34,-0.58,2267.16553348954,1205.2093575058418,-0.6560024862527492,-0.11360607936531525,-0.6501972406967005,-0.6114676587755606,-0.16286841601429164,0.3579131656417111,-0.2332801401521542,-0.22739345425752294,-0.7380282581046541,-0.12155484659969956,-0.014555961606246412,0.011377760582794232,0.0631785116299857,0.2927671691926189,-0.37693825672686876,0.11223982696402564,0.24723558130036588,0.10885277931512456,-0.25187073432847557,Stance
40573,-0.03,0.16,0.99,0.11,-0.05,0.18,0.02,0.14,0.91,-0.11,0.47,0.2,0.03,0.11,1.01,0.16,0.15,-0.4,0.02,0.03,0.93,0.35,0.56,0.81,0.01,0.11,0.95,-0.5,-0.19,-0.82,0.02,0.11,0.93,-0.24,-0.13,-0.47,2267.9323881330693,1201.156966108676,-0.6319063530462253,-0.10401031296508062,-0.6292972665183041,-0.5969874763528196,-0.17864690886003495,0.34846304258509847,-0.2232864553357978,-0.23694089936130525,-0.7195053354439506,-0.13696941590514175,0.011477048778765772,-0.00011584996013576517,0.034763555638988176,0.29131566837678646,-0.36715737831153816,0.1102485078439032,0.23974949996069345,0.08369366224314793,-0.2552517670995015,Stance
40577,-0.03,0.15,0.98,0.01,0.27,0.18,0.02,0.14,0.92,-0.11,0.15,0.43,0.03,0.11,1.02,-0.04,0.14,-0.3,0.02,0.03,0.93,0.24,0.23,0.7,0.02,0.11,0.95,-0.31,-0.08,-0.73,0.04,0.11,0.92,-0.18,-0.27,-0.47,2266.8622084516383,1205.308326265194,-0.6088842443092009,-0.09250413034953635,-0.6073036914520226,-0.5944071047070254,-0.19744458871659465,0.33745476520884937,-0.21410805140732525,-0.24431922993225072,-0.7013025485076133,-0.16215744023207354,0.03623404725132187,-0.013182889953532801,-0.0013781401778949903,0.2833329848807988,-0.3578930588606229,0.10766935551149952,0.23148559606005173,0.05677120424381401,-0.2585317093411783,Stance
40581,-0.03,0.15,0.98,0.03,0.24,0.07,0.02,0.14,0.92,-0.06,0.28,0.24,0.03,0.12,1.01,0.05,0.09,-0.49,0.02,0.03,0.94,0.14,0.22,0.73,0.02,0.11,0.95,-0.33,-0.21,-0.77,0.03,0.11,0.92,-0.02,-0.21,-0.4,2269.0281064850396,1200.3746657975253,-0.5904793866053857,-0.0804763261204383,-0.58552741713482,-0.6059104571491526,-0.21796160882044666,0.3252024200037415,-0.20702153841292883,-0.24900836273771382,-0.684327630938731,-0.1953433501658227,0.05739071753181983,-0.02856552386772117,-0.04319516289943998,0.26924766088967694,-0.3494728643357825,0.10460681963950118,0.22238826171342221,0.02928056114449489,-0.26172172232870494,Stance
40585,-0.02,0.15,0.98,-0.3,0.06,0.28,0.02,0.14,0.92,0.31,0.52,0.23,0.03,0.11,1.02,-0.13,0.18,-0.5,0.02,0.03,0.93,0.34,0.4,0.91,0.02,0.11,0.95,-0.2,0.1,-0.69,0.02,0.11,0.92,0.02,-0.09,-0.47,2263.0816254133247,1207.176046622854,-0.5796065706171744,-0.06906353724503764,-0.5651113097817217,-0.6339982567216288,-0.2394446321540834,0.31135272932209473,-0.20344612721838526,-0.2514927078842799,-0.6695018657221041,-0.2339526077094462,0.07327856308237295,-0.04677653744257942,-0.08803318281801084,0.25001514449792395,-0.34169545937066853,0.10053397757626414,0.21222832198840424,0.0023510521034019625,-0.26483622039212795,Stance
40589,-0.04,0.15,1.0,-0.17,0.21,0.03,0.02,0.14,0.92,-0.02,0.36,0.26,0.03,0.12,1.02,-0.18,0.05,-0.47,0.02,0.03,0.92,0.77,0.37,0.85,0.02,0.12,0.95,-0.35,0.08,-0.69,0.03,0.12,0.92,-0.08,-0.15,-0.27,2267.2068815657535,1195.8877009193577,-0.5778622461214205,-0.05900609288101495,-0.5469469718263755,-0.6813150188594908,-0.261868533109529,0.29526093967692785,-0.20445558221307011,-0.2528635503533992,-0.6576725107239652,-0.27521917615606334,0.08298078063408469,-0.06792215736141509,-0.13288507910250685,0.22716532916580195,-0.33431759420991836,0.09504763836635904,0.20104682752484254,-0.02304959865973219,-0.26789275335496426,Stance
40593,-0.03,0.15,0.99,-0.28,0.18,0.18,0.03,0.15,0.92,0.08,0.02,0.15,0.03,0.11,1.01,-0.31,-0.08,-0.47,0.02,0.03,0.92,0.65,0.4,0.71,0.01,0.12,0.95,-0.25,0.02,-0.75,0.03,0.12,0.93,-0.13,-0.24,-0.44,2273.9404168925616,1191.5583620067002,-0.5852938546033779,-0.050461918106268586,-0.531553978014341,-0.7488998322153456,-0.28533117637478406,0.27657299060188434,-0.2105522228086671,-0.2539626401639388,-0.6495166092995036,-0.3168149021229603,0.08598681620133994,-0.09154256749962267,-0.17476341789800937,0.2027858493897525,-0.3275097533539044,0.08865816875436297,0.18967104852784378,-0.046222215978268526,-0.2709111925094007,Stance
40597,-0.02,0.15,0.99,-0.18,0.24,-0.09,0.02,0.15,0.91,-0.11,0.22,0.2,0.03,0.11,1.01,-0.14,0.05,-0.44,0.01,0.03,0.93,0.29,0.23,0.85,0.01,0.12,0.96,-0.34,-0.18,-0.58,0.03,0.12,0.93,-0.21,-0.18,-0.3,2263.4298701968232,1205.0554880956756,-0.600745564212684,-0.04319333669058691,-0.518963523291448,-0.8341575154105773,-0.30952615446870463,0.2553634740433342,-0.22169959550811097,-0.2550162368320023,-0.6455036117753552,-0.3569909169086233,0.08215866069955423,-0.1166836793936185,-0.21109160000398686,0.17919942111145196,-0.32194101906236,0.08268336274630618,0.17917394221761543,-0.06676918964761862,-0.2739093677810596,Stance
40601,-0.03,0.15,0.98,-0.29,0.15,-0.05,0.02,0.14,0.91,-0.2,0.31,0.08,0.03,0.11,1.01,-0.31,-0.08,-0.38,0.02,0.03,0.93,0.02,0.21,0.77,0.02,0.12,0.95,-0.39,-0.02,-0.76,0.03,0.12,0.92,-0.12,-0.17,-0.44,2269.356531149346,1201.3678753059592,-0.6223253877595493,-0.03692299806258835,-0.5087779297001433,-0.9304994706220445,-0.33379826647983535,0.23205236553821965,-0.2374262190164663,-0.25610515974188874,-0.6458158493221445,-0.3942852171339885,0.07195130287694478,-0.1422547345765984,-0.23972670134027343,0.15868060207528628,-0.3186608086544633,0.07854362202819706,0.17000729383183036,-0.08466733365235173,-0.27689739002840824,Stance
40605,-0.02,0.15,0.98,-0.4,0.11,0.05,0.01,0.14,0.92,0.02,0.38,0.21,0.03,0.11,1.0,-0.39,-0.12,-0.22,0.02,0.03,0.93,-0.44,0.24,0.63,0.02,0.12,0.95,-0.41,-0.04,-0.55,0.04,0.12,0.91,-0.38,-0.09,-0.31,2263.330503723042,1203.3004444275969,-0.6476633621937763,-0.03138157041702676,-0.500329931686152,-1.0288645338205387,-0.35752040699780874,0.20745866471974916,-0.25702540330432416,-0.25768008666095454,-0.6501973808777786,-0.42729345242681915,0.0564473940373888,-0.16742169424639272,-0.2588221969449957,0.1434101381364293,-0.31876505938451116,0.07704618183169051,0.16217308294985477,-0.10035906778678541,-0.2798746911192817,Stance
40609,-0.03,0.15,0.98,-0.42,0.06,-0.05,0.02,0.14,0.92,-0.05,0.05,0.21,0.03,0.11,1.01,-0.4,-0.3,-0.44,0.02,0.02,0.94,-0.57,0.1,0.7,0.01,0.12,0.96,-0.37,0.07,-0.72,0.02,0.13,0.92,-0.35,-0.23,-0.38,2265.6726769449706,1205.6613836214735,-0.6742112193525432,-0.026137795702608643,-0.4927751386852638,-1.1200213034944695,-0.3803500478151328,0.18267829181614093,-0.2797668367830772,-0.2604646459941962,-0.6577993171828213,-0.4548269422333386,0.037119615921351753,-0.19160518788541098,-0.2670748033367177,0.135210301921832,-0.32285684782553387,0.07816967230625038,0.155911974483861,-0.11464787305852366,-0.28283012284420556,Stance
40613,-0.03,0.15,0.98,-0.4,-0.06,-0.12,0.02,0.14,0.91,0.05,0.28,0.24,0.02,0.11,1.01,-0.45,-0.02,-0.34,0.02,0.02,0.92,-0.47,0.13,0.63,0.02,0.11,0.94,-0.55,-0.05,-0.8,0.03,0.12,0.92,-0.48,-0.22,-0.32,2264.2694858568666,1203.6833681240626,-0.6997882670872894,-0.020648407729913176,-0.4850799013405198,-1.1965177772476943,-0.4023703321715686,0.15881005818753044,-0.3049624761047746,-0.2650315465324206,-0.6671507541073892,-0.476257434215232,0.015443121014312286,-0.21422349152710882,-0.26424071021110573,0.13501545659614597,-0.33075851093895575,0.08144259966151872,0.1517105534511977,-0.12830605055392727,-0.28574337966416713,Stance
40617,-0.03,0.15,0.98,-0.27,0.11,-0.15,0.03,0.14,0.92,0.03,0.19,0.14,0.03,0.11,1.0,-0.18,-0.15,-0.56,0.02,0.03,0.93,-0.6,0.34,0.76,0.02,0.12,0.95,-0.56,-0.02,-0.76,0.03,0.12,0.93,-0.56,-0.04,-0.47,2266.962981917689,1203.894628204622,-0.7231636858461085,-0.01450684584359126,-0.4760577841523353,-1.2534369039074953,-0.4241185183404102,0.1369602873790297,-0.332120157544105,-0.2715874441805768,-0.676471538003914,-0.4915368493965265,-0.00745357749778684,-0.2347536628632285,-0.25137829245456067,0.14270993230793283,-0.34174736203238554,0.08639836564979293,0.14987011367158232,-0.14167167472638806,-0.28858699763132317,Stance
40621,-0.02,0.15,0.98,-0.46,0.15,-0.06,0.02,0.14,0.92,0.02,0.24,0.04,0.04,0.11,1.01,-0.37,0.02,-0.38,0.02,0.02,0.92,-0.34,0.24,0.66,0.01,0.11,0.95,-0.5,-0.09,-0.92,0.03,0.11,0.92,-0.37,-0.27,-0.45,2264.9501732507047,1204.1673887394418,-0.7444426971156718,-0.007467331892246747,-0.4646723964997372,-1.2880418122978852,-0.44611716807642615,0.11855902947378112,-0.361260258979543,-0.28008135516667393,-0.6841640000924577,-0.5008227693332248,-0.030722439277297092,-0.25298431200346866,-0.23059842219849602,0.15748814158391625,-0.3549948680821483,0.09281998968466837,0.15043296784554833,-0.1546377787974184,-0.291329592713153,Stance
40625,-0.03,0.15,1.0,-0.4,-0.07,-0.15,0.04,0.14,0.92,-0.06,0.18,0.09,0.04,0.11,1.01,-0.34,-0.05,-0.34,0.02,0.02,0.92,-0.56,0.24,0.51,0.02,0.11,0.95,-0.53,0.03,-0.81,0.03,0.11,0.93,-0.48,-0.06,-0.4,2265.990080304619,1205.33327433029,-0.765009200039167,0.0006510969377951559,-0.4504975068296106,-1.29900973865161,-0.4681251451635261,0.10557894307906707,-0.3929648356578782,-0.29035727808083184,-0.6891972295896405,-0.5042403036663958,-0.053294697451179505,-0.26899861771545525,-0.20477836850801154,0.17826461615962177,-0.36969865856673273,0.1007402639165568,0.15331897249397933,-0.16704929215994618,-0.2939407044305016,Stance
40629,-0.02,0.14,0.99,-0.33,-0.06,-0.11,0.02,0.14,0.92,-0.15,0.21,0.15,0.03,0.11,1.01,-0.25,-0.17,-0.65,0.02,0.03,0.93,-0.69,0.08,0.5,0.02,0.11,0.96,-0.58,-0.05,-0.79,0.03,0.11,0.92,-0.43,-0.21,-0.24,2266.7703054940102,1202.3000064850544,-0.7870932847790915,0.009907219596344517,-0.4338583056814874,-1.2859966956385007,-0.4888490281437102,0.10022628474481134,-0.4280895995537889,-0.30208034604553813,-0.6912785387250403,-0.5019749074905182,-0.07369148598424703,-0.28297784716172325,-0.17771630961271354,0.20376896162257846,-0.3848584383986952,0.11008632313637,0.15829381910218593,-0.1790288507781073,-0.29639524629170855,Stance
40633,-0.03,0.15,0.99,-0.6,-0.11,0.03,0.02,0.14,0.92,0.07,0.27,0.18,0.03,0.11,1.0,-0.05,0.07,-0.5,0.02,0.02,0.94,-0.63,0.11,0.34,0.02,0.12,0.95,-0.61,-0.17,-0.69,0.03,0.11,0.93,-0.47,-0.14,-0.4,2264.789122390632,1203.029499298162,-0.8134172547229446,0.02013859557323505,-0.41551275008319305,-1.25006407592978,-0.5062320163189863,0.10419262292381577,-0.46754311542670407,-0.3146145405529442,-0.690632962319139,-0.49440513194089136,-0.09042842475570814,-0.2949890433590067,-0.1542376365398288,0.23227328533919767,-0.3993527661517037,0.1201650447227713,0.1648958359073168,-0.19081633277308335,-0.2986753714080393,Stance
40637,-0.02,0.15,0.98,-0.35,-0.11,-0.25,0.01,0.14,0.92,0.09,0.1,0.13,0.03,0.11,1.01,0.13,0.18,-0.49,0.02,0.02,0.94,-0.69,-0.1,0.45,0.02,0.11,0.96,-0.63,-0.13,-0.78,0.03,0.11,0.92,-0.36,-0.04,-0.28,2263.162413429072,1206.2271732915212,-0.8469372326837131,0.030915103143795357,-0.3963870125151118,-1.1945597250536564,-0.5179797101472465,0.11788277753386772,-0.5122326261811949,-0.32722699886584566,-0.6875143360370322,-0.48235453021593305,-0.10242955902335096,-0.30469323571703466,-0.13955395729452574,0.26149452253173455,-0.41236411032107173,0.12958376047744302,0.1724246490330766,-0.2023229387986168,-0.3007702993800641,Stance
40641,-0.02,0.15,0.98,-0.37,-0.11,-0.14,0.02,0.15,0.92,0.12,0.33,-0.17,0.03,0.11,1.0,0.08,0.07,-0.53,0.01,0.02,0.94,-0.57,0.04,0.43,0.02,0.12,0.95,-0.75,-0.14,-0.88,0.03,0.11,0.92,-0.37,-0.06,-0.25,2265.6661505211223,1205.733088551145,-0.8903649681205633,0.04168527635414607,-0.3775914288974604,-1.1257654553209127,-0.5221269932279179,0.13990771717818978,-0.5630355705873552,-0.3394481969922222,-0.6819827078743571,-0.4673570197593838,-0.10916163814823095,-0.31129570303210824,-0.13807474048554463,0.2890857413552244,-0.423425524580042,0.1367708770290121,0.17985804885806447,-0.21304111843602735,-0.3026758838352434,Stance
40645,-0.02,0.14,0.98,-0.45,-0.06,-0.54,0.02,0.14,0.91,0.18,0.27,0.18,0.04,0.11,1.01,0.21,0.15,-0.53,0.02,0.01,0.92,-0.28,-0.29,0.5,0.02,0.11,0.95,-0.53,-0.04,-0.71,0.04,0.12,0.92,-0.41,-0.09,-0.21,2261.7474416952377,1202.1953110126929,-0.9454991066924143,0.05204985440133592,-0.3603427877159859,-1.0530853883986202,-0.5176033614161007,0.1669478038088569,-0.6206808961746921,-0.35110932284984064,-0.6741353164390794,-0.45156760969841,-0.11059950736969427,-0.3141129973823494,-0.15236094155101682,0.31307030150626386,-0.43217240077775854,0.14056695092099425,0.18584917250752986,-0.22255066917169944,-0.3043943717474466,Stance
40649,-0.02,0.15,0.98,0.0,-0.27,-0.08,0.03,0.14,0.92,0.23,0.44,0.0,0.03,0.11,1.01,0.06,0.24,-0.6,0.02,0.02,0.92,-0.08,0.02,0.63,0.02,0.11,0.95,-0.66,-0.11,-0.82,0.02,0.12,0.91,-0.53,0.02,-0.11,2263.7695286287753,1207.2865527702045,-1.0127193365161489,0.0618585586527974,-0.34565639988728275,-0.9884845682322282,-0.5048136283782044,0.1939004268680444,-0.6852740894873949,-0.36202364266250775,-0.6643239887204069,-0.4374418645208231,-0.10719166457957682,-0.3134348488808305,-0.18252739802523169,0.33184409509643226,-0.43830836184954286,0.14063492340127,0.18909101523475327,-0.2308940532702824,-0.30593308564784505,Stance
40653,-0.03,0.15,0.98,-0.14,0.01,-0.23,0.02,0.14,0.92,0.05,0.34,0.0,0.03,0.1,1.0,-0.05,0.18,-0.5,0.01,0.02,0.92,0.26,-0.11,0.81,0.02,0.11,0.95,-0.86,-0.24,-0.74,0.03,0.12,0.92,-0.57,-0.15,-0.29,2259.1233705388277,1201.4969739313317,-1.0908416817357456,0.0711650726709853,-0.3340613898054823,-0.9450734640720281,-0.4860091672277538,0.21435097629314362,-0.7556433577395631,-0.37174909873846473,-0.6531053277902604,-0.427038253771131,-0.10000249846637779,-0.3108470645548483,-0.22609009831622626,0.3442248402273426,-0.44172624586638143,0.13774314022066445,0.18887132121429948,-0.23840820347942507,-0.3073014000753783,Stance
40657,-0.03,0.15,0.99,-0.32,0.05,-0.11,0.02,0.14,0.92,0.06,0.23,0.13,0.03,0.11,1.0,-0.09,0.18,-0.5,0.02,0.02,0.92,0.6,0.24,1.09,0.01,0.11,0.95,-0.9,-0.31,-0.76,0.03,0.12,0.92,-0.81,-0.05,-0.08,2261.618886124004,1206.587360538682,-1.1772375173434306,0.08007969760981626,-0.3255568249155771,-0.9350521140341532,-0.46508527801276073,0.22161108573095945,-0.8292261283150105,-0.37986914842248737,-0.6411782469327921,-0.4211360128645255,-0.09067379923361561,-0.3087404578423815,-0.278270514858445,0.3495894761855073,-0.4424846862096017,0.1336652780090967,0.1853565434701175,-0.24555408506304321,-0.3085077580058546,Stance
40661,-0.03,0.15,0.98,-0.11,0.03,0.05,0.02,0.14,0.92,0.06,0.26,0.13,0.03,0.11,1.01,-0.33,0.29,-0.65,0.02,0.02,0.91,0.87,0.16,1.02,0.01,0.11,0.95,-1.04,-0.12,-0.66,0.03,0.12,0.92,-0.92,-0.11,-0.25,2260.1512944920783,1203.318395793761,-1.2681898867828052,0.0884947285193703,-0.3196966682540344,-0.9670809992608036,-0.4468396469048809,0.21025140058152766,-0.9024956504617567,-0.38655590016187497,-0.6293287193763444,-0.41910815787266226,-0.08083655615694228,-0.30958977139785293,-0.33256664179753925,0.3478718862701136,-0.4406666398535345,0.13070252733540336,0.17934647594514208,-0.25275405967287756,-0.3095579680385903,Stance
40665,-0.03,0.15,0.98,-0.21,-0.04,-0.18,0.02,0.14,0.91,0.02,0.22,-0.02,0.02,0.11,1.01,-0.66,0.18,-0.47,0.02,0.03,0.93,0.53,0.43,1.1,0.01,0.12,0.96,-1.15,-0.12,-0.79,0.03,0.12,0.93,-0.95,-0.01,-0.15,2262.127879054056,1207.1161156335645,-1.3593985792490286,0.09591551393214251,-0.31562704560867727,-1.0435980091407766,-0.4360023234238986,0.1775155439916203,-0.9713853346706244,-0.39264336644779396,-0.6182995216224106,-0.4192720282734403,-0.07156321842734181,-0.31534692242653894,-0.38161708048904786,0.339622186182693,-0.4364281432934572,0.13129683694705677,0.17179469689748225,-0.26004456346128973,-0.3104539168033894,Stance
40669,-0.04,0.15,0.97,-0.3,0.02,0.04,0.01,0.14,0.91,0.09,0.18,0.07,0.03,0.11,1.02,-0.6,0.12,-0.51,0.01,0.03,0.93,-0.26,0.26,0.83,0.01,0.11,0.95,-1.34,-0.18,-0.5,0.02,0.12,0.93,-0.92,0.03,-0.24,2261.40415914391,1203.180000886689,-1.446165712524651,0.10156264479236429,-0.3121681727390295,-1.1597373082809792,-0.43632713361482073,0.12402761666940067,-1.031712737594395,-0.39913326624966383,-0.6086531840512972,-0.41897980908344284,-0.06339390045043891,-0.32705878961265944,-0.4185827628697262,0.32608392263691244,-0.4300915707858493,0.1378963888432219,0.16351054680654917,-0.2670069783052368,-0.31119341959972224,Stance
40673,-0.02,0.15,0.98,-0.3,0.07,-0.01,0.02,0.14,0.92,-0.1,0.33,-0.11,0.02,0.11,1.01,-0.5,0.1,-0.69,0.02,0.04,0.93,-0.41,0.16,0.59,0.01,0.12,0.96,-1.27,-0.21,-0.79,0.02,0.12,0.93,-1.23,0.03,-0.31,2263.4765844382655,1206.8281374838575,-1.5231406457556256,0.1046805578102137,-0.3080371671791999,-1.305044777673782,-0.45013544147384066,0.053584716040805724,-1.0797237349116056,-0.40686327633904323,-0.6005647637513251,-0.41482397747931926,-0.05652940567949058,-0.34467924640338193,-0.4383713398065557,0.3089688119790094,-0.4220989767285927,0.15284187473568497,0.15507856734601527,-0.27307730066039315,-0.31177358329094745,Stance
40677,-0.04,0.15,0.98,-0.62,-0.01,-0.22,0.02,0.14,0.92,0.11,0.21,0.02,0.02,0.11,1.01,-0.73,0.12,-0.38,0.02,0.04,0.93,-0.83,0.14,0.48,0.02,0.12,0.95,-1.49,-0.09,-0.66,0.04,0.12,0.92,-1.34,-0.05,-0.23,2264.541671546061,1205.5036958643143,-1.5843331151055724,0.10478841933449694,-0.30219733896887074,-1.4666593739852969,-0.47857865057150845,-0.027863849397497423,-1.1125383833100422,-0.4165431447849859,-0.5937159117280557,-0.4033228856777815,-0.05079474920904695,-0.3668646069485726,-0.4379619079437758,0.29011259624975544,-0.41312438190538503,0.17809857745563035,0.14700652953700352,-0.27789766047632253,-0.31219687917624706,Stance
40681,-0.03,0.15,0.98,-0.12,0.06,-0.4,0.03,0.14,0.92,-0.08,0.18,-0.03,0.02,0.11,1.01,-0.6,0.11,-0.54,0.02,0.04,0.93,-1.23,0.18,0.27,0.02,0.11,0.95,-1.36,-0.13,-0.85,0.04,0.12,0.92,-1.61,0.05,-0.31,2265.18999420196,1207.5697476731864,-1.6239074581847486,0.10166580666914256,-0.29416902137371753,-1.6319805351962666,-0.5221545416921832,-0.1134862738025066,-1.128427091845113,-0.4286595194700102,-0.5875971634387803,-0.3817651381671975,-0.04556629886035934,-0.3912319371557035,-0.41642053018086217,0.27138643823817316,-0.404138744886405,0.21493154228180988,0.13992562318065943,-0.2815186403747848,-0.312476694585788,Stance
40685,-0.03,0.15,0.98,-0.36,-0.02,-0.27,0.01,0.14,0.91,-0.09,0.08,0.05,0.03,0.12,1.01,-0.51,0.0,-0.46,0.03,0.04,0.93,-1.22,0.39,0.22,0.02,0.11,0.95,-1.32,-0.18,-0.68,0.04,0.12,0.92,-1.72,-0.01,-0.27,2259.524874995064,1205.2258097644196,-1.6374997608865869,0.09527934308212999,-0.2841850303387702,-1.7905539993309265,-0.5806205460993352,-0.19653663391281745,-1.126900669698774,-0.44316736170115645,-0.5819874444661103,-0.3485014545898062,-0.039840752027575754,-0.4153062758801113,-0.3751274056291407,0.25477036252380325,-0.39615637449262403,0.2635119861975455,0.1344279103372689,-0.28434177786552145,-0.31264105525223235,Stance
40689,-0.03,0.14,0.98,-0.44,-0.05,-0.38,0.03,0.14,0.92,0.17,0.14,0.0,0.02,0.11,1.01,-0.37,-0.03,-0.37,0.03,0.03,0.93,-1.38,0.06,0.05,0.02,0.11,0.95,-1.36,-0.23,-0.72,0.04,0.12,0.91,-1.6,-0.16,-0.3,2264.0978499090893,1203.3346109226782,-1.6235125717915364,0.0857346297999497,-0.2733205754284164,-1.9351864272017973,-0.652198758963098,-0.2709851838059889,-1.1084865556822183,-0.4593922481040033,-0.5771669909380781,-0.3027475663182489,-0.032414142713979854,-0.43727666164734663,-0.3177208292499742,0.24223623162777783,-0.3900001803966923,0.3223687289217355,0.13059839856135094,-0.28689636530765866,-0.3127347669322223,Stance
40693,-0.02,0.15,0.98,-0.31,-0.02,-0.29,0.01,0.14,0.92,0.44,0.42,0.03,0.03,0.12,1.0,-0.22,0.07,-0.44,0.02,0.04,0.93,-1.47,0.11,-0.11,0.02,0.12,0.94,-1.44,-0.24,-0.7,0.04,0.11,0.93,-1.48,0.1,-0.14,2279.000010079096,1205.3509516064769,-1.583751665799083,0.07309054057689701,-0.2635506031884161,-2.062067679715775,-0.7329155612046949,-0.3320324960717691,-1.074543169042738,-0.4762325506696315,-0.5737956595309804,-0.24489680719835913,-0.022173784619528805,-0.45608523982819094,-0.24954937836082622,0.23546494512035673,-0.3861018924533396,0.3883397317171498,0.12786702353868873,-0.2896677432071202,-0.31281956194957683,Stance
40697,-0.03,0.14,0.99,-0.11,-0.06,-0.35,0.03,0.14,0.92,0.44,0.07,-0.03,0.03,0.12,1.0,-0.02,-0.15,-0.5,0.02,0.03,0.93,-1.4,-0.31,-0.08,0.01,0.12,0.95,-1.43,-0.37,-0.61,0.03,0.11,0.92,-1.38,-0.04,-0.15,2261.0592437953587,1206.7641661873,-1.5231661703089763,0.057356486169645664,-0.25750335247386313,-2.1703372740452975,-0.8167322439690887,-0.376672447536382,-1.0275922561874773,-0.4924471515084642,-0.5726745318599333,-0.1771223157804122,-0.008394306313724557,-0.4712319827718462,-0.17690663025201267,0.23568131188661498,-0.38433626253341413,0.45750417220352935,0.1254885878952373,-0.29306067030298044,-0.31297098554463093,Stance
40701,-0.03,0.14,0.98,0.04,0.07,-0.37,0.02,0.14,0.92,0.57,0.27,-0.05,0.02,0.12,1.0,-0.07,0.02,-0.58,0.01,0.04,0.93,-1.35,-0.38,-0.08,0.01,0.11,0.95,-1.23,-0.37,-0.68,0.03,0.12,0.93,-1.14,-0.22,-0.11,2264.1753698732227,1203.4750166768686,-1.4491154165421254,0.03870980377748858,-0.25797953389940464,-2.261330495468469,-0.8963738945840191,-0.40408537515934956,-0.9718646016964742,-0.5070131740463781,-0.5744922846009634,-0.10321789883754709,0.009128604924702471,-0.48261480782718436,-0.10626257739062672,0.24350246773426287,-0.3842504969045645,0.5262794663919822,0.1229621950636539,-0.29750564938169904,-0.31327149657072234,Stance
40705,-0.03,0.14,0.98,-0.14,0.07,-0.41,0.02,0.14,0.92,0.47,0.4,0.01,0.03,0.11,1.01,0.15,-0.12,-0.41,0.02,0.03,0.93,-1.34,-0.82,-0.02,0.01,0.11,0.96,-1.08,-0.21,-0.72,0.03,0.11,0.92,-0.82,-0.15,0.01,2264.295718091337,1208.046316473679,-1.3703616734836548,0.017265456438778793,-0.26746466333748686,-2.337403415418912,-0.9646427128460221,-0.41555635916520234,-0.9133329122457785,-0.5194134850913881,-0.5796501633474616,-0.027970936605551874,0.03017559188422673,-0.49053041912831263,-0.043753014814150865,0.25867507596758776,-0.3855255129836263,0.5918430097245249,0.1200622528208992,-0.30362813432244273,-0.31380117768203514,Stance
40709,-0.02,0.14,0.98,0.2,-0.06,-0.36,0.02,0.14,0.92,0.47,0.25,0.04,0.03,0.11,1.01,0.21,0.08,-0.53,0.02,0.03,0.92,-1.19,-0.68,0.17,0.02,0.11,0.94,-0.69,-0.39,-0.73,0.02,0.11,0.92,-0.79,0.05,-0.08,2263.623770216691,1205.72428650853,-1.295694624813724,-0.007313292409479424,-0.2876276879121813,-2.4005682705288995,-1.0159616168161874,-0.41395244790294566,-0.8588809790491327,-0.529535789442271,-0.5883544677478156,0.0430243499713335,0.054259801960704054,-0.4958054518005635,0.005116767423723227,0.2799228249674387,-0.38812411899120264,0.6518559639414832,0.11714626826792003,-0.3122490341136385,-0.31462784072564287,Stance
40713,-0.03,0.14,0.98,0.37,-0.01,-0.32,0.03,0.14,0.92,0.89,0.08,-0.08,0.02,0.11,1.0,0.05,0.24,-0.34,0.02,0.03,0.93,-1.55,-0.57,0.33,0.01,0.11,0.95,-0.79,-0.35,-0.64,0.04,0.12,0.92,-0.75,-0.16,-0.1,2265.6543060225067,1204.9207032127497,-1.2326849225529917,-0.03551342141831123,-0.3188966174464464,-2.4513500080063424,-1.0473952371794797,-0.4027736794086055,-0.8148550685217004,-0.5374531634365372,-0.6007833769834732,0.10341834872475067,0.08042819962127015,-0.49980900529415967,0.035727436859378084,0.30516538549735833,-0.39205940350305474,0.7040219958472286,0.11546973142627938,-0.3241913514220057,-0.315798376860578,Stance
40717,-0.03,0.15,0.98,0.52,0.08,-0.38,0.01,0.14,0.91,0.49,0.01,-0.01,0.03,0.11,1.01,0.27,0.15,-0.59,0.01,0.04,0.93,-1.46,-0.65,0.1,0.01,0.11,0.95,-0.63,-0.27,-0.94,0.03,0.12,0.91,-0.74,-0.11,-0.27,2262.535937420742,1205.565056833214,-1.187201582355787,-0.06741197533931019,-0.36041094924332406,-2.488365194734263,-1.0585452326144347,-0.38503053795611825,-0.7857468347861909,-0.5434467306959208,-0.6171239543609948,0.14686437073488892,0.1068019604303981,-0.5042627181172236,0.0443376138691149,0.33217088032500924,-0.3971244767293898,0.7461230373823692,0.11662245531513993,-0.34020640421660997,-0.3173337682306655,Stance
40721,-0.03,0.15,0.99,0.58,0.24,-0.34,0.02,0.14,0.92,0.82,0.24,-0.19,0.03,0.11,1.02,0.26,0.18,-0.45,0.02,0.04,0.92,-1.68,-0.56,0.3,0.02,0.12,0.95,-0.76,-0.31,-0.66,0.03,0.12,0.92,-0.74,-0.08,-0.27,2265.405415429836,1205.412242402322,-1.1635440032795759,-0.10250284857566595,-0.4103531074171787,-2.508695593480781,-1.0508908373132428,-0.36267923548508835,-0.7735857045782921,-0.5479488952303811,-0.6377163310734413,0.16823574864037105,0.13051560874362286,-0.5110745429586863,0.028003576276787807,0.359124957334598,-0.40287408240664163,0.7762216801220089,0.12156711169499095,-0.361137499370262,-0.31922800230244464,Stance
40725,-0.03,0.15,0.99,0.66,0.31,-0.21,0.02,0.15,0.92,0.91,0.22,0.08,0.03,0.11,1.02,0.27,0.23,-0.37,0.02,0.03,0.92,-1.85,-0.44,0.12,0.02,0.12,0.96,-0.89,-0.31,-0.72,0.03,0.12,0.92,-0.53,-0.29,-0.43,2264.7331453064585,1206.6957512348497,-1.1645691772292046,-0.13965906714139562,-0.4663765967293108,-2.5086533775265916,-1.0273051935851596,-0.3367508788542108,-0.7780237509549576,-0.5512913880393324,-0.6631137932241585,0.16461736375524047,0.14830051220081503,-0.5222048909308398,-0.015069894985782758,0.3846643911140605,-0.4087156092133617,0.7926741689022109,0.13040081000524045,-0.38806740686929414,-0.3214494130042672,Stance
40729,-0.03,0.15,0.99,0.27,0.33,-0.26,0.02,0.15,0.92,0.86,0.18,-0.11,0.03,0.11,1.01,-0.01,0.2,-0.54,0.01,0.04,0.93,-2.16,-0.37,0.15,0.01,0.11,0.96,-0.91,-0.39,-0.8,0.03,0.12,0.92,-0.51,-0.37,-0.39,2267.5135827608747,1204.96453427121,-1.1913048053646695,-0.17726729592025298,-0.5259206039542039,-2.4850389648719085,-0.9915652171114042,-0.3077328306124956,-0.7969412737590689,-0.5536323797615141,-0.6936965779423041,0.13576601936738958,0.1573172723510403,-0.5392761962837883,-0.08511587644598999,0.407707747176797,-0.4137424771990326,0.7945268499137472,0.14281236534651146,-0.4221322498275315,-0.32394497372410846,Stance
40733,-0.03,0.15,0.98,0.15,0.44,-0.43,0.02,0.14,0.93,0.67,0.17,0.0,0.03,0.11,1.02,-0.19,0.29,-0.73,0.02,0.04,0.93,-2.02,-0.44,0.31,0.02,0.12,0.96,-1.16,-0.4,-0.78,0.03,0.13,0.93,-0.73,-0.22,-0.45,2264.043582925576,1205.0218826191533,-1.2422038990582134,-0.2136647240201984,-0.5862947182739969,-2.4369788517452413,-0.9478096833814679,-0.27597614556006306,-0.8273282726870402,-0.5551791778293648,-0.7292948459986752,0.08363274054943716,0.1558380662558618,-0.5631408304723603,-0.18106126881306428,0.42739325781786797,-0.41673176999178785,0.7820213277645089,0.15834523827291458,-0.46405474120107315,-0.32664844845097263,Stance
40737,-0.03,0.16,0.99,0.15,0.08,-0.35,0.02,0.14,0.92,0.54,0.37,-0.02,0.02,0.12,1.02,-0.12,0.32,-0.44,0.02,0.03,0.93,-1.69,-0.37,0.2,0.02,0.12,0.95,-0.82,-0.34,-0.92,0.02,0.12,0.92,-0.89,-0.47,-0.62,2263.524996341154,1203.3795634256162,-1.3129147249358415,-0.24737038263041253,-0.6445905564304703,-2.3673350090711054,-0.9003882158681011,-0.24187057189988065,-0.8659996151741163,-0.5564773946432126,-0.7691773705213959,0.01110278534269858,0.14357138662618898,-0.5939277735196805,-0.30129780246420756,0.44312881503962653,-0.4167491832378471,0.7562531794256262,0.17631702018279855,-0.5136958415660314,-0.32949063789474015,Stance
40741,-0.03,0.15,0.99,0.22,0.31,-0.34,0.02,0.14,0.92,0.74,0.15,-0.37,0.03,0.12,1.01,-0.15,0.3,-0.52,0.02,0.03,0.92,-1.45,-0.17,0.21,0.01,0.11,0.96,-1.07,-0.3,-0.9,0.02,0.13,0.92,-1.15,-0.41,-0.79,2265.375985851936,1202.123066317956,-1.3969853092535287,-0.2770950185020799,-0.6978377223532934,-2.2825429546043736,-0.8539911116419351,-0.20587074904827452,-0.909673762877497,-0.5584548883117134,-0.8121813058529135,-0.07883987260770799,0.12143110898753098,-0.6312888073132148,-0.4439687715398134,0.45475621154724943,-0.41354041211266224,0.7182979575458815,0.19587842178735596,-0.5698084897961051,-0.3324085345864723,Stance
40745,-0.02,0.16,0.99,0.08,0.07,-0.37,0.02,0.14,0.92,0.66,0.25,-0.31,0.03,0.12,1.02,-0.37,0.39,-0.56,0.02,0.02,0.93,-1.2,-0.14,0.21,0.02,0.12,0.95,-1.2,-0.26,-0.84,0.04,0.13,0.92,-1.06,-0.45,-0.69,2264.679201369229,1205.8229982853836,-1.4869075634398379,-0.3019091332104233,-0.7435520709515829,-2.191108363193211,-0.8134495799953335,-0.16880977362369753,-0.9546605340161992,-0.5621267197414396,-0.8567381839052082,-0.1828629251479822,0.09101811618534845,-0.6742505351188605,-0.6063711675080287,0.46272156078392157,-0.40725102910711963,0.6689109971001928,0.21604853311743805,-0.6303167805716303,-0.335351183392095,Stance
40749,-0.04,0.16,0.98,-0.19,0.3,-0.68,0.03,0.14,0.92,0.63,0.47,-0.37,0.03,0.12,1.01,-0.52,0.31,-0.52,0.02,0.02,0.92,-1.06,0.16,0.47,0.02,0.12,0.95,-1.33,-0.36,-1.11,0.03,0.13,0.93,-1.69,-0.48,-0.86,2267.452419186226,1202.1542307109662,-1.5749821175453786,-0.3213863586188272,-0.7801625582180267,-2.101868474713366,-0.7830281361289573,-0.13223613501581127,-0.9970855204480135,-0.5682362760013803,-0.9007133738082603,-0.2967369276612297,0.054411630079494455,-0.7209909225407918,-0.7842558635896241,0.4681897412956846,-0.3982272031247583,0.6089866699672006,0.23557749997236718,-0.6929619316454461,-0.3382819285935278,Stance
40753,-0.03,0.16,0.98,-0.26,0.1,-0.56,0.03,0.14,0.93,0.66,0.15,-0.47,0.03,0.12,1.01,-0.89,0.2,-0.46,0.02,0.03,0.93,-0.92,-0.05,0.43,0.01,0.12,0.95,-1.23,-0.33,-1.23,0.04,0.13,0.92,-1.53,-0.43,-0.67,2265.561368498425,1204.8022644857283,-1.6543329051535915,-0.3355672877475085,-0.8070125014978002,-2.022664686805887,-0.7655288546503847,-0.09819793857995057,-1.0336179837717474,-0.577157465026093,-0.9415158197746151,-0.41539147832289436,0.014368392587961468,-0.7691675943180305,-0.971710618263193,0.4729971778919376,-0.3871106213575337,0.5401068386010612,0.2530496692907979,-0.7555968746703482,-0.34117795282337504,Stance
40757,-0.03,0.16,0.99,-0.5,-0.05,-0.52,0.02,0.14,0.91,0.4,0.44,-0.61,0.03,0.12,1.02,-0.92,0.29,-0.46,0.02,0.03,0.93,-0.77,-0.18,0.56,0.02,0.12,0.96,-1.34,-0.25,-1.21,0.03,0.12,0.94,-1.64,-0.51,-0.84,2266.9854533298044,1202.4931606968505,-1.7200180897872699,-0.3448740117533473,-0.82410827478433,-1.9594384213559801,-0.761860860847007,-0.06863601067102722,-1.0618445253992215,-0.5889566595615461,-0.9767945637574764,-0.5334551416005991,-0.025507297121928136,-0.8163806330971888,-1.1615120191782957,0.4792805415377137,-0.37477713898437737,0.46485230336613814,0.26701285915767015,-0.8162136056384123,-0.3440278487231282,Stance
40761,-0.02,0.15,0.99,-0.95,-0.08,-0.79,0.03,0.15,0.93,0.24,0.43,-0.63,0.04,0.12,1.01,-1.53,0.21,-0.47,0.02,0.03,0.93,-0.92,0.02,0.46,0.02,0.11,0.95,-1.5,-0.4,-1.21,0.03,0.12,0.93,-1.5,-0.33,-0.82,2268.761850328933,1203.0672349043898,-1.769351303801232,-0.34997538440347997,-0.8319000237066908,-1.915669621619506,-0.7714326548763024,-0.0449532007498434,-1.0803138764307307,-0.603308447602963,-1.0050654156049055,-0.646012972848974,-0.06109779793166339,-0.8601244949767558,-1.3456707741575584,0.4890351815055234,-0.36215074207285564,0.3867088249880327,0.27593981283126007,-0.873190142999424,-0.34682811602095603,Stance
40765,-0.02,0.15,1.0,-0.61,-0.13,-0.89,0.01,0.15,0.92,-0.08,0.3,-0.59,0.03,0.11,1.01,-1.46,0.26,-0.46,0.02,0.02,0.93,-0.98,-0.2,0.41,0.02,0.12,0.96,-1.33,-0.38,-1.22,0.04,0.12,0.92,-1.69,-0.49,-0.88,2266.5248271191936,1200.9307061165769,-1.801412131347996,-0.3515428441908262,-0.8313532851025784,-1.892396499855261,-0.792658075446432,-0.028038097955056587,-1.088792558548623,-0.6194284575063593,-1.0257474253905592,-0.7496193038509383,-0.08841877895428749,-0.8978194364633034,-1.5162151342128039,0.503885880326319,-0.3501679484272759,0.3092718020186175,0.27841397864662215,-0.9255433659629817,-0.3495802451100089,Stance
40769,-0.03,0.16,0.98,-0.72,-0.34,-0.89,0.02,0.14,0.93,0.1,0.44,-0.63,0.03,0.11,1.0,-1.65,0.21,-0.47,0.02,0.02,0.93,-0.86,-0.29,0.66,0.02,0.11,0.95,-1.34,-0.49,-1.17,0.03,0.12,0.92,-1.58,-0.52,-0.63,2268.3792174109785,1200.8969009683542,-1.8165928901287114,-0.3501176937634613,-0.8240802194098678,-1.8888191528679543,-0.823183106238116,-0.018546547813130865,-1.0884680196390701,-0.6362972941246556,-1.0388817545542242,-0.8427485658335896,-0.1041511070909876,-0.9274883545545936,-1.6659555842834886,0.5249315174717337,-0.3398835280324646,0.23507699892222936,0.27329620240117475,-0.9727877126164866,-0.35228885325702025,Stance
40773,-0.02,0.15,0.98,-0.92,-0.27,-0.63,0.02,0.14,0.91,0.34,0.52,-0.69,0.03,0.11,1.01,-1.89,0.24,-0.34,0.02,0.03,0.94,-0.87,-0.27,0.66,0.02,0.11,0.95,-1.27,-0.53,-1.23,0.03,0.11,0.92,-1.71,-0.41,-0.67,2269.3337558539733,1200.0112256607993,-1.8164951221068757,-0.3463101495681442,-0.8120043873225665,-1.9027440451091033,-0.8603074360095774,-0.016801718246625907,-1.0816603461217886,-0.6530565732055571,-1.0448420742202669,-0.9251694160681608,-0.1062211639781448,-0.9482651651606858,-1.7887474535831014,0.5525285845971699,-0.33251891970189723,0.16519048176770706,0.25977254632792174,-1.0145486980011027,-0.35495978370656095,Stance
40777,-0.03,0.15,0.98,-0.85,-0.18,-0.87,0.03,0.15,0.92,-0.08,0.4,-0.78,0.03,0.12,1.0,-2.15,0.26,-0.37,0.02,0.03,0.93,-0.93,-0.03,0.31,0.02,0.11,0.94,-1.06,-0.39,-1.11,0.02,0.11,0.92,-1.6,-0.38,-0.69,2270.58356674831,1200.703536632764,-1.8039836981537127,-0.34092751069062976,-0.7967206248720705,-1.9304789685805142,-0.9012575798686113,-0.02235692968243959,-1.0712081438606813,-0.6693148948839514,-1.044094133490181,-0.9973172080359144,-0.09435315881534793,-0.9600288294339194,-1.8797312478030292,0.5860538957476594,-0.32927268574272295,0.10005629018139552,0.23772839259077305,-1.050372018996467,-0.3575971213124854,Stance
40781,-0.03,0.15,0.98,-0.95,-0.15,-0.85,0.01,0.14,0.92,-0.21,0.38,-0.86,0.03,0.11,1.0,-2.16,0.45,-0.37,0.02,0.03,0.93,-1.05,-0.34,0.44,0.02,0.11,0.95,-1.2,-0.44,-1.19,0.03,0.12,0.92,-1.5,-0.47,-0.63,2268.193074385018,1200.10244831552,-1.783149458501689,-0.33476052660688144,-0.7791690636663092,-1.9667041937887104,-0.9427084654090658,-0.03422013686030918,-1.0597284443963375,-0.685075274337865,-1.0369705022613929,-1.0601734046351128,-0.0700958311934877,-0.9628779445527735,-1.9361458825816236,0.6238201893410407,-0.33099486850158366,0.04020957765615307,0.2081406924070439,-1.0798964870927343,-0.36019824976959036,Stance
40785,-0.03,0.15,0.98,-1.07,0.06,-0.79,0.03,0.15,0.92,0.08,0.25,-0.94,0.03,0.11,1.0,-2.15,0.5,-0.19,0.02,0.03,0.93,-1.45,-0.54,0.69,0.02,0.11,0.94,-1.2,-0.41,-1.15,0.03,0.11,0.92,-1.35,-0.36,-0.73,2267.0039712306793,1199.683121234171,-1.7588939033153212,-0.32842969574465514,-0.7597032221331993,-2.0049424819403034,-0.9803950700273679,-0.0514855812572722,-1.0490905549460328,-0.7003197776626592,-1.023500957422481,-1.1151764905529906,-0.03633876242021806,-0.9571855654274302,-1.9581747536896001,0.6633777187655011,-0.33789720581294513,-0.014089886645836299,0.17299700376901644,-1.1032750008900603,-0.362748555084186,Stance
40789,-0.02,0.15,0.98,-0.97,-0.02,-0.93,0.02,0.15,0.92,0.02,0.21,-0.61,0.04,0.11,1.0,-1.77,0.56,-0.63,0.01,0.03,0.93,-1.34,-0.65,0.43,0.01,0.12,0.95,-1.05,-0.48,-1.27,0.03,0.11,0.92,-1.17,-0.55,-0.63,2270.4364372924583,1196.6195745958505,-1.7360339699883929,-0.3224918459561935,-0.7382908075820637,-2.0387671666078755,-1.0098431719009069,-0.07314678779504301,-1.040375745519474,-0.71468106960739,-1.0034783978839998,-1.1641549561662408,0.003323808183383508,-0.943880809407552,-1.9489802974305788,0.7020978022757827,-0.3493549991709058,-0.06296785334803924,0.13490169562217863,-1.1214488723048526,-0.36522072833806724,Stance
40793,-0.03,0.14,0.98,-0.89,0.14,-0.7,0.03,0.15,0.92,-0.24,0.15,-0.81,0.03,0.11,1.0,-1.82,0.65,-0.35,0.02,0.03,0.92,-1.49,-0.63,0.49,0.02,0.12,0.96,-1.24,-0.51,-1.11,0.03,0.12,0.91,-1.18,-0.31,-0.66,2267.151189804744,1199.862327331544,-1.7181713713150202,-0.3176304157224879,-0.7147043046319062,-2.063109330521493,-1.0276610051211952,-0.09749716322189436,-1.033933119273117,-0.7274102407428973,-0.9767533677622607,-1.2091298590991866,0.04509937957036367,-0.9245936044745713,-1.9137174871132938,0.7376764215193508,-0.3641139473776888,-0.10620655487527772,0.09665945773257109,-1.1357757624504183,-0.367580384150963,Stance
40797,-0.02,0.15,0.99,-0.9,0.08,-0.6,0.02,0.14,0.92,-0.4,0.18,-0.73,0.03,0.1,1.01,-1.69,0.45,-0.51,0.02,0.03,0.92,-1.43,-0.55,0.14,0.02,0.11,0.94,-1.24,-0.68,-1.04,0.03,0.12,0.92,-1.29,-0.32,-0.69,2265.7023825071096,1197.03772831737,-1.7068622949149577,-0.3146210069095909,-0.688656693042074,-2.0749423395680653,-1.0322731776126215,-0.12226334679051733,-1.029457615388239,-0.7376384831115038,-0.9433741645171924,-1.2516110887817833,0.0852313264058244,-0.9015141472619147,-1.8582163454615503,0.7683302283145301,-0.38078770118716976,-0.14309390625953633,0.061019540219405456,-1.147311785180803,-0.36979381100625425,Stance
40801,-0.03,0.15,0.99,-0.99,0.44,-0.79,0.02,0.15,0.92,-0.2,0.03,-0.8,0.03,0.1,1.01,-1.66,0.78,-0.42,0.03,0.03,0.94,-1.13,-0.53,0.44,0.01,0.11,0.95,-1.25,-0.54,-1.25,0.03,0.11,0.93,-1.33,-0.25,-0.45,2268.290297752495,1197.991532084665,-1.7015648028052461,-0.3138705483719075,-0.6598776120059995,-2.0732466486433982,-1.0238631527586628,-0.14533688008907628,-1.026394396609015,-0.7448633662696709,-0.9034664186457517,-1.2917478738734858,0.12021158470001503,-0.8769010658446011,-1.7882127032694937,0.7926757125668314,-0.3980022078871649,-0.17322494175590564,0.03061667696705496,-1.1564924008933297,-0.3718331697919058,Stance
40805,-0.03,0.15,0.98,-1.04,0.35,-0.6,0.01,0.14,0.92,-0.1,-0.03,-0.85,0.03,0.11,1.01,-1.47,0.66,-0.69,0.02,0.03,0.93,-1.16,-0.36,0.37,0.02,0.11,0.95,-1.02,-0.44,-0.98,0.03,0.11,0.92,-1.53,-0.5,-0.64,2265.8433175542486,1195.2891331914916,-1.700291936119282,-0.31498996532364065,-0.6280066966413791,-2.058235198947248,-1.0038863269203324,-0.16516118350043768,-1.0242430089052454,-0.7491943394123017,-0.8573176451643465,-1.3279389286367347,0.14737337396631772,-0.8528035941111661,-1.7091038554927351,0.8096937085880029,-0.4143572926458945,-0.19686876666917072,0.007836057802270851,-1.1632282350285,-0.37367752822544753,Stance
40809,-0.03,0.15,0.99,-1.33,0.21,-0.46,0.03,0.14,0.92,-0.31,-0.02,-0.78,0.03,0.1,1.01,-1.5,0.69,-0.56,0.02,0.03,0.93,-1.24,-0.47,0.31,0.02,0.11,0.96,-1.14,-0.5,-1.12,0.03,0.12,0.93,-1.44,-0.39,-0.64,2266.748635140096,1196.9273640927706,-1.700538755518987,-0.31698328021104505,-0.592540033680906,-2.03030007600494,-0.974500197293976,-0.18043463906927185,-1.0222370953927014,-0.7509839439959226,-0.8056839435899591,-1.3570662101304272,0.16555038188718893,-0.8310644736478879,-1.6257827144942465,0.8190071632900257,-0.4287477661626208,-0.21436240514052576,-0.005568128361764022,-1.1670965110505893,-0.37531183809162544,Stance
40813,-0.03,0.14,0.99,-1.36,0.47,-0.66,0.02,0.14,0.92,-0.37,-0.11,-0.76,0.03,0.1,1.01,-1.29,0.6,-0.63,0.02,0.03,0.94,-1.42,-0.27,0.15,0.02,0.11,0.95,-1.34,-0.52,-0.84,0.03,0.12,0.93,-1.38,-0.47,-0.65,2267.7468044968655,1194.3440258377605,-1.6999515090675992,-0.3187982622909799,-0.5532801454158774,-1.989790436188387,-0.9381639770035611,-0.18990160798732655,-1.018947159396339,-0.750323449583799,-0.7498741845437467,-1.375323200052512,0.17515301342293882,-0.8130358116002605,-1.542503274318818,0.8209841982784112,-0.4408175525643478,-0.2256638934804275,-0.008871103740407544,-1.1674142105661134,-0.3767273150415082,Stance
40817,-0.02,0.14,0.99,-1.45,0.18,-0.48,0.02,0.14,0.92,-0.3,0.12,-0.82,0.03,0.1,1.01,-1.16,0.58,-0.63,0.02,0.03,0.94,-1.21,-0.48,0.17,0.02,0.11,0.96,-1.23,-0.52,-0.93,0.02,0.11,0.93,-1.31,-0.42,-0.4,2266.8899193694406,1196.184493518593,-1.6963142516685494,-0.3196610065201758,-0.5108772384564911,-1.9377949628180744,-0.8975263184248959,-0.19281153505728948,-1.0126147804493955,-0.7469616177718498,-0.691578495012039,-1.3793567608415842,0.17793090280556584,-0.7993052284888363,-1.4627288286250815,0.8164244729541101,-0.4511280260723794,-0.23070494738758274,-0.002538088174319053,-1.1631088016799358,-0.37792374241594884,Stance
40821,-0.03,0.14,0.99,-1.26,0.08,-0.48,0.02,0.14,0.93,-0.33,0.11,-1.05,0.03,0.1,1.01,-1.18,0.61,-0.44,0.03,0.03,0.94,-1.12,-0.24,0.27,0.02,0.11,0.94,-1.24,-0.68,-0.76,0.04,0.12,0.92,-1.43,-0.4,-0.28,2263.505365112172,1193.3452758459591,-1.6871219352945515,-0.31911530104175406,-0.466662286446689,-1.8768522825409422,-0.8555706748369541,-0.18951561669634825,-1.001828493798045,-0.7405769060934261,-0.632648846931366,-1.3670884965479666,0.17665144420095485,-0.7897156482859572,-1.388826566660018,0.8061663246344268,-0.46102442554628864,-0.22981862402527836,0.012028831840702173,-1.1528091282629405,-0.3789109323998183,Stance
40825,-0.02,0.14,0.99,-1.27,0.1,-0.6,0.02,0.14,0.92,-0.12,0.01,-0.79,0.02,0.1,1.0,-1.09,0.58,-0.51,0.03,0.02,0.92,-1.08,-0.19,0.46,0.02,0.11,0.95,-1.08,-0.47,-0.7,0.03,0.11,0.92,-1.59,-0.46,-0.27,2264.878396796438,1194.9785649244618,-1.6695442422328974,-0.31695675125115147,-0.4218291326818916,-1.8109144742845922,-0.8157330708217528,-0.18143204418117256,-0.9856751759592409,-0.731171579784018,-0.574916468720484,-1.3378175787597955,0.17429472836571516,-0.7833268271906121,-1.3218771034557644,0.7909041954951767,-0.4721890812325219,-0.2236556439458857,0.03299115782016748,-1.1354560858989151,-0.37970728320046715,Stance
40829,-0.03,0.14,0.98,-1.24,0.26,-0.68,0.02,0.14,0.92,-0.2,0.27,-0.79,0.03,0.1,1.01,-1.15,0.6,-0.38,0.03,0.02,0.93,-0.8,0.02,0.27,0.02,0.1,0.95,-1.18,-0.52,-0.6,0.03,0.11,0.92,-1.4,-0.34,-0.32,2265.7526826132266,1193.097810860414,-1.6410382396813732,-0.3131734940172646,-0.3767927622112419,-1.7449030668970111,-0.7815465984898957,-0.1703890408822033,-0.9633929547354696,-0.7192556704591466,-0.519952895503237,-1.2918895685169858,0.17326307075559766,-0.7785530856748006,-1.2618653736131362,0.7712339849081167,-0.4859582102255069,-0.2126933544993399,0.058330233231132476,-1.1107771824331438,-0.38033676403452005,Stance
40833,-0.02,0.14,0.98,-1.35,0.26,-0.58,0.02,0.14,0.92,-0.44,-0.05,-0.86,0.02,0.11,1.01,-1.08,0.49,-0.5,0.02,0.02,0.93,-0.58,-0.11,0.41,0.01,0.11,0.96,-1.13,-0.34,-0.63,0.03,0.11,0.93,-1.51,-0.47,-0.46,2264.139494605353,1195.384634367953,-1.5999749144102313,-0.3079021457151574,-0.3313438517782697,-1.6839897923621887,-0.7559182097509148,-0.15810826690802365,-0.934102581471408,-0.7055619869852204,-0.4687951668068599,-1.2306065787751816,0.17544070519983476,-0.7737249912515434,-1.2081152757404652,0.7477367321930202,-0.5027409698625985,-0.19689297246558238,0.08583877310948985,-1.0791552938253564,-0.38082640436599535,Stance
40837,-0.04,0.13,0.98,-1.02,0.04,-0.51,0.02,0.13,0.93,-0.32,0.38,-0.66,0.03,0.11,1.01,-1.0,0.65,-0.57,0.02,0.02,0.92,-0.44,-0.06,0.44,0.01,0.11,0.95,-1.15,-0.58,-0.41,0.03,0.11,0.92,-1.27,-0.4,-0.23,2263.139174067907,1192.8987963226973,-1.545805196808178,-0.30144334735779166,-0.28538710900053144,-1.6323738112103017,-0.7406850961711552,-0.14611466266332174,-0.8968967068640689,-0.6906217933995478,-0.42177796369287257,-1.156551842028692,0.18265152278544006,-0.7674655174269541,-1.1597081857492892,0.7210187453428023,-0.5217943814464621,-0.17613720933963334,0.11306298088265139,-1.0414295766911608,-0.381204641503514,Stance
40841,-0.02,0.13,0.98,-0.92,0.11,-0.65,0.02,0.14,0.93,-0.15,0.26,-0.64,0.02,0.1,1.01,-1.03,0.63,-0.69,0.02,0.02,0.93,-0.6,0.1,0.6,0.02,0.11,0.96,-1.09,-0.45,-0.57,0.03,0.11,0.93,-1.24,-0.49,-0.12,2262.1557462992164,1197.1259684917425,-1.4788753639117236,-0.2944297876734414,-0.23938763031416638,-1.5920566584414582,-0.7365682825530152,-0.13550872389803703,-0.8511067900533259,-0.6747367628099201,-0.3784002048979056,-1.07365360978876,0.19653767583349485,-0.758568560198808,-1.1157013681262438,0.6919536843450838,-0.5414832070350724,-0.15096222017120958,0.13742528842508445,-0.9988080655735116,-0.38150042307424853,Stance
40845,-0.03,0.13,0.99,-0.64,0.12,-0.55,0.02,0.14,0.93,-0.18,0.43,-0.59,0.03,0.1,1.01,-0.9,0.51,-0.84,0.02,0.02,0.93,-0.4,0.13,0.37,0.01,0.11,0.96,-1.04,-0.33,-0.6,0.03,0.12,0.93,-1.08,-0.27,-0.14,2258.747983802418,1190.1402919830998,-1.4000303418970477,-0.2879730322559872,-0.19407118718473615,-1.5623649354076172,-0.7429077322709773,-0.12648009758766177,-0.7965038704502962,-0.6582099348308714,-0.33738691704557294,-0.9865029768543028,0.21793563926215678,-0.7459036827441142,-1.0751984518130249,0.6621633026568484,-0.5599806362849883,-0.12256256686050741,0.15674674924059942,-0.9525946599943163,-0.38174308690249437,Stance
